Coaxial Probe Method (Opt. 004) 20.0.22083101
Keysight Technologies,P9371A,MY57211751,A.17.25.05

Ch 1
Port:, 1
Probe:, High temperature
Std1:, Air
Std2:, Short
Std3:, 25.0C water
IFBW:, 300.000000 Hz
Power:, -5.000000 dBm
Date:,"Saturday, July 06, 2024 17:42:41"
frequency(Hz),e',e''
3e+008,3.93909,1.00826
3.01e+008,3.93637,0.998996
3.02e+008,3.93389,1.00244
3.03e+008,3.93324,1.01238
3.04e+008,3.93325,1.00366
3.05e+008,3.93845,1.00532
3.06e+008,3.9208,1.00808
3.07e+008,3.92143,1.01335
3.08e+008,3.91492,1.01086
3.09e+008,3.90895,1.01703
3.1e+008,3.9079,1.01815
3.11e+008,3.89951,1.02233
3.12e+008,3.89075,1.0223
3.13e+008,3.89329,1.0143
3.14e+008,3.89129,1.01624
3.15e+008,3.88505,1.01424
3.16e+008,3.88214,1.01214
3.17e+008,3.87068,1.01435
3.18e+008,3.86262,1.01689
3.19e+008,3.85292,1.00797
3.2e+008,3.83746,1.01207
3.21e+008,3.84306,1.01843
3.22e+008,3.82354,1.0098
3.23e+008,3.81785,1.01234
3.24e+008,3.81147,1.01066
3.25e+008,3.79229,1.01151
3.26e+008,3.78037,1.00813
3.27e+008,3.77329,1.01401
3.28e+008,3.75395,1.01308
3.29e+008,3.74828,1.00835
3.3e+008,3.73467,1.0089
3.31e+008,3.72236,1.00532
3.32e+008,3.70486,1.00279
3.33e+008,3.69373,1.00798
3.34e+008,3.67864,0.999962
3.35e+008,3.66376,1.0038
3.36e+008,3.6459,1.00095
3.37e+008,3.63326,0.99387
3.38e+008,3.62288,0.999986
3.39e+008,3.60449,0.995232
3.4e+008,3.58839,0.995989
3.41e+008,3.5758,0.995886
3.42e+008,3.5563,0.986565
3.43e+008,3.54112,0.982378
3.44e+008,3.52594,0.97953
3.45e+008,3.51565,0.979809
3.46e+008,3.49045,0.971905
3.47e+008,3.48471,0.970735
3.48e+008,3.46432,0.967555
3.49e+008,3.44488,0.968454
3.5e+008,3.43257,0.967474
3.51e+008,3.41891,0.960077
3.52e+008,3.39957,0.958016
3.53e+008,3.38079,0.950841
3.54e+008,3.37108,0.953181
3.55e+008,3.35215,0.950752
3.56e+008,3.33637,0.951085
3.57e+008,3.3154,0.948436
3.58e+008,3.29856,0.947003
3.59e+008,3.28582,0.946657
3.6e+008,3.26951,0.940094
3.61e+008,3.25421,0.93453
3.62e+008,3.24194,0.931109
3.63e+008,3.21964,0.932843
3.64e+008,3.20844,0.933673
3.65e+008,3.19381,0.929953
3.66e+008,3.18241,0.926811
3.67e+008,3.16324,0.925931
3.68e+008,3.14926,0.926702
3.69e+008,3.13401,0.927774
3.7e+008,3.12388,0.914039
3.71e+008,3.10405,0.918103
3.72e+008,3.09764,0.918161
3.73e+008,3.08548,0.916698
3.74e+008,3.07799,0.91562
3.75e+008,3.0654,0.917907
3.76e+008,3.05354,0.91262
3.77e+008,3.04353,0.912938
3.78e+008,3.03431,0.913323
3.79e+008,3.0205,0.918558
3.8e+008,3.00885,0.90772
3.81e+008,3.00057,0.91321
3.82e+008,2.98295,0.914161
3.83e+008,2.97997,0.911653
3.84e+008,2.97215,0.92228
3.85e+008,2.96253,0.91789
3.86e+008,2.95539,0.915712
3.87e+008,2.94782,0.920332
3.88e+008,2.94183,0.916447
3.89e+008,2.9369,0.916187
3.9e+008,2.93282,0.921235
3.91e+008,2.92188,0.924214
3.92e+008,2.91591,0.924825
3.93e+008,2.91033,0.931709
3.94e+008,2.90787,0.925364
3.95e+008,2.89918,0.928155
3.96e+008,2.9006,0.928626
3.97e+008,2.90145,0.928503
3.98e+008,2.89636,0.932296
3.99e+008,2.89392,0.934516
4e+008,2.89169,0.940579
4.01e+008,2.89818,0.937206
4.02e+008,2.89785,0.944177
4.03e+008,2.89445,0.946675
4.04e+008,2.90119,0.947766
4.05e+008,2.89423,0.950667
4.06e+008,2.9017,0.953838
4.07e+008,2.90059,0.953233
4.08e+008,2.90567,0.959182
4.09e+008,2.90515,0.957
4.1e+008,2.9079,0.961305
4.11e+008,2.91578,0.963514
4.12e+008,2.913,0.966688
4.13e+008,2.91649,0.963998
4.14e+008,2.91981,0.970318
4.15e+008,2.9245,0.978565
4.16e+008,2.92832,0.975308
4.17e+008,2.93453,0.983281
4.18e+008,2.93847,0.98176
4.19e+008,2.9516,0.984862
4.2e+008,2.9578,0.984669
4.21e+008,2.95863,0.989988
4.22e+008,2.97034,0.990355
4.23e+008,2.97792,0.993697
4.24e+008,2.98734,0.999356
4.25e+008,2.993,0.995333
4.26e+008,3.00306,1.00168
4.27e+008,3.00817,1.00292
4.28e+008,3.0169,1.00163
4.29e+008,3.02387,1.00274
4.3e+008,3.03491,1.0073
4.31e+008,3.04236,1.00761
4.32e+008,3.0555,1.0061
4.33e+008,3.05864,1.00774
4.34e+008,3.06971,1.01172
4.35e+008,3.07657,1.01351
4.36e+008,3.07953,1.01308
4.37e+008,3.09506,1.01177
4.38e+008,3.09729,1.01431
4.39e+008,3.10558,1.0175
4.4e+008,3.10985,1.01835
4.41e+008,3.11903,1.01791
4.42e+008,3.12305,1.02233
4.43e+008,3.13159,1.02231
4.44e+008,3.13441,1.02273
4.45e+008,3.13839,1.02536
4.46e+008,3.13967,1.02468
4.47e+008,3.13859,1.02332
4.48e+008,3.14675,1.02415
4.49e+008,3.14488,1.02458
4.5e+008,3.15248,1.02904
4.51e+008,3.14918,1.03128
4.52e+008,3.14725,1.03274
4.53e+008,3.15347,1.0335
4.54e+008,3.15585,1.03541
4.55e+008,3.15312,1.03064
4.56e+008,3.15874,1.03085
4.57e+008,3.15282,1.03169
4.58e+008,3.15238,1.03111
4.59e+008,3.15389,1.03235
4.6e+008,3.15358,1.03299
4.61e+008,3.14446,1.03126
4.62e+008,3.14311,1.03529
4.63e+008,3.14061,1.03187
4.64e+008,3.13746,1.0341
4.65e+008,3.13394,1.03871
4.66e+008,3.13267,1.03094
4.67e+008,3.12939,1.02662
4.68e+008,3.12003,1.02957
4.69e+008,3.11999,1.02876
4.7e+008,3.11621,1.02432
4.71e+008,3.10637,1.02475
4.72e+008,3.10136,1.02301
4.73e+008,3.09288,1.02282
4.74e+008,3.08794,1.02105
4.75e+008,3.07746,1.02137
4.76e+008,3.07499,1.02208
4.77e+008,3.06641,1.02087
4.78e+008,3.05683,1.01383
4.79e+008,3.0519,1.01537
4.8e+008,3.04031,1.01417
4.81e+008,3.03295,1.012
4.82e+008,3.028,1.00934
4.83e+008,3.01916,1.00586
4.84e+008,3.00463,1.00906
4.85e+008,2.99513,1.00718
4.86e+008,2.99312,1.00123
4.87e+008,2.9792,1.00365
4.88e+008,2.97602,0.996891
4.89e+008,2.96295,0.998638
4.9e+008,2.95524,0.999345
4.91e+008,2.94714,0.995916
4.92e+008,2.9341,0.995889
4.93e+008,2.92961,0.992802
4.94e+008,2.91808,0.996209
4.95e+008,2.90884,0.993395
4.96e+008,2.89833,0.989508
4.97e+008,2.89039,0.987744
4.98e+008,2.8818,0.99061
4.99e+008,2.87142,0.988565
5e+008,2.86334,0.985955

