Coaxial Probe Method (Opt. 004) 20.0.22083101
Keysight Technologies,P9371A,MY57211751,A.17.25.05

Ch 1
Port:, 1
Probe:, High temperature
Std1:, Air
Std2:, Short
Std3:, 25.0C water
IFBW:, 300.000000 Hz
Power:, -5.000000 dBm
Date:,"Saturday, July 06, 2024 18:10:59"
frequency(Hz),e',e''
3e+008,6.62789,1.74442
3.01e+008,6.6339,1.7458
3.02e+008,6.62631,1.75034
3.03e+008,6.63896,1.76047
3.04e+008,6.63262,1.7602
3.05e+008,6.63835,1.76613
3.06e+008,6.63411,1.76886
3.07e+008,6.63751,1.77611
3.08e+008,6.63719,1.78256
3.09e+008,6.63738,1.79328
3.1e+008,6.64214,1.79191
3.11e+008,6.64281,1.80747
3.12e+008,6.63894,1.81439
3.13e+008,6.65615,1.8051
3.14e+008,6.66226,1.80909
3.15e+008,6.66499,1.80986
3.16e+008,6.67184,1.82029
3.17e+008,6.67399,1.82568
3.18e+008,6.67204,1.82654
3.19e+008,6.67146,1.83163
3.2e+008,6.6744,1.84161
3.21e+008,6.67813,1.84589
3.22e+008,6.6742,1.85109
3.23e+008,6.68062,1.86063
3.24e+008,6.68517,1.8673
3.25e+008,6.67735,1.87608
3.26e+008,6.67883,1.87683
3.27e+008,6.68143,1.88584
3.28e+008,6.67828,1.89552
3.29e+008,6.68222,1.89823
3.3e+008,6.67673,1.89896
3.31e+008,6.67615,1.90698
3.32e+008,6.67718,1.91466
3.33e+008,6.67461,1.92207
3.34e+008,6.66963,1.92641
3.35e+008,6.67007,1.93204
3.36e+008,6.67069,1.93589
3.37e+008,6.66683,1.93872
3.38e+008,6.66457,1.94955
3.39e+008,6.66002,1.95746
3.4e+008,6.65031,1.96128
3.41e+008,6.65078,1.9656
3.42e+008,6.64194,1.96575
3.43e+008,6.64035,1.96786
3.44e+008,6.64463,1.97037
3.45e+008,6.64605,1.97796
3.46e+008,6.63374,1.98059
3.47e+008,6.63416,1.98452
3.48e+008,6.63155,1.98045
3.49e+008,6.61586,1.98726
3.5e+008,6.61549,1.99002
3.51e+008,6.60866,1.99535
3.52e+008,6.59893,2.00359
3.53e+008,6.59371,2.00037
3.54e+008,6.58884,2.00396
3.55e+008,6.5748,2.00666
3.56e+008,6.56832,2.01081
3.57e+008,6.56189,2.01343
3.58e+008,6.54735,2.01467
3.59e+008,6.54153,2.02709
3.6e+008,6.53241,2.0238
3.61e+008,6.52003,2.03068
3.62e+008,6.50718,2.03082
3.63e+008,6.49422,2.03815
3.64e+008,6.48552,2.03882
3.65e+008,6.47491,2.04551
3.66e+008,6.46516,2.04511
3.67e+008,6.44914,2.04367
3.68e+008,6.43888,2.0447
3.69e+008,6.42691,2.05065
3.7e+008,6.4195,2.04569
3.71e+008,6.40396,2.04882
3.72e+008,6.39453,2.04865
3.73e+008,6.38465,2.05754
3.74e+008,6.37224,2.05276
3.75e+008,6.35905,2.06093
3.76e+008,6.34839,2.05002
3.77e+008,6.33881,2.05399
3.78e+008,6.32581,2.06004
3.79e+008,6.31065,2.06494
3.8e+008,6.29378,2.06122
3.81e+008,6.28182,2.0626
3.82e+008,6.26002,2.06735
3.83e+008,6.24909,2.07312
3.84e+008,6.23277,2.07972
3.85e+008,6.21744,2.07975
3.86e+008,6.20111,2.07994
3.87e+008,6.19669,2.08468
3.88e+008,6.18081,2.08257
3.89e+008,6.1684,2.07878
3.9e+008,6.1544,2.08783
3.91e+008,6.13654,2.09425
3.92e+008,6.12246,2.09071
3.93e+008,6.10998,2.10013
3.94e+008,6.09426,2.09735
3.95e+008,6.07675,2.10273
3.96e+008,6.07664,2.1002
3.97e+008,6.06218,2.10373
3.98e+008,6.0502,2.10518
3.99e+008,6.04372,2.10269
4e+008,6.03596,2.10627
4.01e+008,6.02819,2.10206
4.02e+008,6.01892,2.11286
4.03e+008,6.00912,2.11185
4.04e+008,6.00288,2.11294
4.05e+008,5.98953,2.11778
4.06e+008,5.98693,2.11695
4.07e+008,5.98063,2.11729
4.08e+008,5.9778,2.11827
4.09e+008,5.97291,2.11814
4.1e+008,5.9639,2.11831
4.11e+008,5.96349,2.12051
4.12e+008,5.95255,2.12661
4.13e+008,5.9502,2.12308
4.14e+008,5.94409,2.12848
4.15e+008,5.94067,2.13243
4.16e+008,5.93091,2.13355
4.17e+008,5.92771,2.13967
4.18e+008,5.93873,2.13582
4.19e+008,5.9402,2.13539
4.2e+008,5.94223,2.1365
4.21e+008,5.94488,2.14101
4.22e+008,5.94482,2.13888
4.23e+008,5.94543,2.14054
4.24e+008,5.95208,2.13973
4.25e+008,5.95583,2.14346
4.26e+008,5.96187,2.14335
4.27e+008,5.96611,2.14221
4.28e+008,5.9708,2.14072
4.29e+008,5.98089,2.13962
4.3e+008,5.9878,2.14273
4.31e+008,5.99383,2.14191
4.32e+008,6.00447,2.13772
4.33e+008,6.00768,2.13974
4.34e+008,6.01544,2.14012
4.35e+008,6.02306,2.14098
4.36e+008,6.02543,2.14074
4.37e+008,6.03667,2.14219
4.38e+008,6.04507,2.14132
4.39e+008,6.04996,2.1468
4.4e+008,6.05242,2.14887
4.41e+008,6.05772,2.14813
4.42e+008,6.06263,2.15227
4.43e+008,6.06936,2.15157
4.44e+008,6.06908,2.15646
4.45e+008,6.07303,2.15938
4.46e+008,6.07386,2.16279
4.47e+008,6.07513,2.17403
4.48e+008,6.07597,2.16538
4.49e+008,6.0741,2.171
4.5e+008,6.07868,2.17405
4.51e+008,6.0754,2.18159
4.52e+008,6.07517,2.1877
4.53e+008,6.07977,2.18626
4.54e+008,6.08213,2.1964
4.55e+008,6.08285,2.19235
4.56e+008,6.0889,2.19436
4.57e+008,6.08398,2.19427
4.58e+008,6.08286,2.19808
4.59e+008,6.08315,2.20342
4.6e+008,6.08025,2.20614
4.61e+008,6.07314,2.20691
4.62e+008,6.07144,2.2137
4.63e+008,6.06785,2.2164
4.64e+008,6.06937,2.22363
4.65e+008,6.05874,2.22476
4.66e+008,6.05655,2.22633
4.67e+008,6.05819,2.22633
4.68e+008,6.05067,2.22564
4.69e+008,6.04992,2.22948
4.7e+008,6.04597,2.22677
4.71e+008,6.03545,2.23043
4.72e+008,6.03183,2.231
4.73e+008,6.0218,2.2344
4.74e+008,6.0176,2.23692
4.75e+008,6.00819,2.23724
4.76e+008,6.00379,2.2397
4.77e+008,5.9953,2.24195
4.78e+008,5.98219,2.24247
4.79e+008,5.97622,2.24792
4.8e+008,5.96411,2.24416
4.81e+008,5.95519,2.24714
4.82e+008,5.9562,2.245
4.83e+008,5.94371,2.24481
4.84e+008,5.93125,2.25093
4.85e+008,5.91627,2.25118
4.86e+008,5.91113,2.24192
4.87e+008,5.89965,2.24668
4.88e+008,5.89451,2.24537
4.89e+008,5.87968,2.24396
4.9e+008,5.86991,2.24432
4.91e+008,5.85967,2.24503
4.92e+008,5.84354,2.24492
4.93e+008,5.83436,2.24503
4.94e+008,5.82383,2.24759
4.95e+008,5.8081,2.24565
4.96e+008,5.79426,2.24522
4.97e+008,5.78357,2.24355
4.98e+008,5.77024,2.24708
4.99e+008,5.75711,2.24341
5e+008,5.74451,2.24227

