Coaxial Probe Method (Opt. 004) 20.0.22083101
Keysight Technologies,P9371A,MY57211751,A.17.25.05

Ch 1
Port:, 1
Probe:, High temperature
Std1:, Air
Std2:, Short
Std3:, 25.0C water
IFBW:, 300.000000 Hz
Power:, -5.000000 dBm
Date:,"Saturday, July 06, 2024 16:11:28"
frequency(Hz),e',e''
3e+008,56.0324,34.9422
3.01e+008,55.9773,34.8829
3.02e+008,55.929,34.8352
3.03e+008,55.8844,34.7865
3.04e+008,55.8341,34.7273
3.05e+008,55.7825,34.6841
3.06e+008,55.7333,34.649
3.07e+008,55.6781,34.6187
3.08e+008,55.6323,34.5941
3.09e+008,55.5868,34.538
3.1e+008,55.5386,34.5057
3.11e+008,55.4877,34.4872
3.12e+008,55.4314,34.4515
3.13e+008,55.4069,34.3104
3.14e+008,55.3517,34.2447
3.15e+008,55.3077,34.1968
3.16e+008,55.2505,34.1593
3.17e+008,55.2114,34.1219
3.18e+008,55.157,34.0732
3.19e+008,55.1033,34.0626
3.2e+008,55.0502,34.025
3.21e+008,55.0085,33.9888
3.22e+008,54.9572,33.9574
3.23e+008,54.9042,33.9239
3.24e+008,54.8578,33.8966
3.25e+008,54.8005,33.8708
3.26e+008,54.7396,33.8524
3.27e+008,54.6891,33.8268
3.28e+008,54.6397,33.7973
3.29e+008,54.585,33.7649
3.3e+008,54.5367,33.7359
3.31e+008,54.4738,33.726
3.32e+008,54.4207,33.7223
3.33e+008,54.3721,33.698
3.34e+008,54.3165,33.6587
3.35e+008,54.268,33.6232
3.36e+008,54.2068,33.6003
3.37e+008,54.1565,33.5626
3.38e+008,54.0967,33.5476
3.39e+008,54.043,33.5385
3.4e+008,53.987,33.5271
3.41e+008,53.9311,33.49
3.42e+008,53.8811,33.4649
3.43e+008,53.833,33.4359
3.44e+008,53.7759,33.3868
3.45e+008,53.726,33.3477
3.46e+008,53.6783,33.3069
3.47e+008,53.6227,33.2732
3.48e+008,53.5693,33.2417
3.49e+008,53.5138,33.2336
3.5e+008,53.4565,33.2135
3.51e+008,53.4074,33.1868
3.52e+008,53.3494,33.1705
3.53e+008,53.2887,33.1555
3.54e+008,53.239,33.1223
3.55e+008,53.1822,33.0979
3.56e+008,53.1289,33.072
3.57e+008,53.0745,33.049
3.58e+008,53.0115,33.0424
3.59e+008,52.9593,33.0282
3.6e+008,52.9057,33.0217
3.61e+008,52.8466,33.0043
3.62e+008,52.7858,32.9797
3.63e+008,52.7259,32.9896
3.64e+008,52.6714,32.9747
3.65e+008,52.6167,32.9524
3.66e+008,52.559,32.9311
3.67e+008,52.5032,32.923
3.68e+008,52.4439,32.909
3.69e+008,52.3939,32.8815
3.7e+008,52.3258,32.8592
3.71e+008,52.2735,32.8318
3.72e+008,52.222,32.8018
3.73e+008,52.1655,32.7862
3.74e+008,52.1208,32.7709
3.75e+008,52.0589,32.7521
3.76e+008,52.0106,32.6975
3.77e+008,51.9609,32.6758
3.78e+008,51.8954,32.6794
3.79e+008,51.8337,32.6973
3.8e+008,51.7795,32.6873
3.81e+008,51.7103,32.7005
3.82e+008,51.6535,32.6959
3.83e+008,51.5883,32.6987
3.84e+008,51.5325,32.7128
3.85e+008,51.4684,32.7156
3.86e+008,51.4189,32.6964
3.87e+008,51.3602,32.6847
3.88e+008,51.3084,32.6754
3.89e+008,51.2536,32.6634
3.9e+008,51.2,32.6676
3.91e+008,51.1272,32.6853
3.92e+008,51.0683,32.6883
3.93e+008,51.0157,32.6853
3.94e+008,50.9523,32.6933
3.95e+008,50.8927,32.6956
3.96e+008,50.8468,32.6782
3.97e+008,50.79,32.6721
3.98e+008,50.7454,32.6473
3.99e+008,50.6995,32.6227
4e+008,50.6591,32.5962
4.01e+008,50.617,32.5731
4.02e+008,50.5692,32.5553
4.03e+008,50.5233,32.5324
4.04e+008,50.4745,32.5281
4.05e+008,50.4345,32.5171
4.06e+008,50.392,32.4922
4.07e+008,50.3564,32.4651
4.08e+008,50.3181,32.4339
4.09e+008,50.2869,32.3915
4.1e+008,50.2482,32.3685
4.11e+008,50.2077,32.3565
4.12e+008,50.1772,32.3545
4.13e+008,50.1437,32.3174
4.14e+008,50.1007,32.3012
4.15e+008,50.0666,32.3024
4.16e+008,50.026,32.2912
4.17e+008,50.0097,32.255
4.18e+008,49.9977,32.1866
4.19e+008,49.9923,32.1183
4.2e+008,49.9841,32.0636
4.21e+008,49.9797,32.0188
4.22e+008,49.9535,31.9842
4.23e+008,49.9437,31.9369
4.24e+008,49.9355,31.8842
4.25e+008,49.9344,31.8321
4.26e+008,49.9328,31.7698
4.27e+008,49.9289,31.7125
4.28e+008,49.9334,31.6452
4.29e+008,49.9247,31.5846
4.3e+008,49.9432,31.5039
4.31e+008,49.9345,31.4408
4.32e+008,49.9378,31.3673
4.33e+008,49.9434,31.304
4.34e+008,49.9493,31.2382
4.35e+008,49.9377,31.1952
4.36e+008,49.9414,31.1343
4.37e+008,49.9354,31.0861
4.38e+008,49.9313,31.0434
4.39e+008,49.9389,30.9692
4.4e+008,49.935,30.9316
4.41e+008,49.9323,30.8781
4.42e+008,49.932,30.8294
4.43e+008,49.9235,30.7973
4.44e+008,49.9167,30.759
4.45e+008,49.9033,30.7319
4.46e+008,49.8819,30.7163
4.47e+008,49.8673,30.7035
4.48e+008,49.853,30.6674
4.49e+008,49.8427,30.6453
4.5e+008,49.819,30.6406
4.51e+008,49.8024,30.6211
4.52e+008,49.7949,30.5867
4.53e+008,49.7802,30.567
4.54e+008,49.7666,30.5403
4.55e+008,49.7557,30.5057
4.56e+008,49.7554,30.4431
4.57e+008,49.7307,30.4331
4.58e+008,49.7048,30.4161
4.59e+008,49.6912,30.3993
4.6e+008,49.6671,30.3828
4.61e+008,49.6396,30.3761
4.62e+008,49.6119,30.3777
4.63e+008,49.5861,30.3678
4.64e+008,49.558,30.3603
4.65e+008,49.5274,30.3592
4.66e+008,49.5027,30.3424
4.67e+008,49.4888,30.2956
4.68e+008,49.464,30.2741
4.69e+008,49.4369,30.2588
4.7e+008,49.4104,30.2335
4.71e+008,49.3845,30.2253
4.72e+008,49.3454,30.2358
4.73e+008,49.3103,30.237
4.74e+008,49.2794,30.2268
4.75e+008,49.2466,30.2108
4.76e+008,49.2049,30.2107
4.77e+008,49.177,30.2043
4.78e+008,49.1312,30.2165
4.79e+008,49.1025,30.2037
4.8e+008,49.0495,30.2035
4.81e+008,49.0079,30.1967
4.82e+008,48.9925,30.1534
4.83e+008,48.953,30.1485
4.84e+008,48.9042,30.1618
4.85e+008,48.8627,30.1604
4.86e+008,48.8245,30.1394
4.87e+008,48.7826,30.1391
4.88e+008,48.7506,30.117
4.89e+008,48.7084,30.1104
4.9e+008,48.6633,30.1158
4.91e+008,48.6214,30.104
4.92e+008,48.5769,30.1055
4.93e+008,48.5342,30.1075
4.94e+008,48.5029,30.0903
4.95e+008,48.4551,30.0957
4.96e+008,48.4094,30.0977
4.97e+008,48.369,30.0941
4.98e+008,48.3154,30.0983
4.99e+008,48.2733,30.0947
5e+008,48.2267,30.0913

