Coaxial Probe Method (Opt. 004) 20.0.22083101
Keysight Technologies,P9371A,MY57211749,A.17.25.05

Ch 1
Port:, 1
Probe:, High temperature
Std1:, Air
Std2:, Short
Std3:, 25.0C water
IFBW:, 300.000000 Hz
Power:, -5.000000 dBm
Date:,"Tuesday, February 27, 2024 18:15:01"
frequency(Hz),e',e''
3e+008,18.3645,5.79893
3.01e+008,18.3518,5.78599
3.02e+008,18.3516,5.77562
3.03e+008,18.3358,5.77012
3.04e+008,18.3278,5.7579
3.05e+008,18.3219,5.75854
3.06e+008,18.3056,5.75177
3.07e+008,18.2969,5.7417
3.08e+008,18.2883,5.72872
3.09e+008,18.2831,5.72235
3.1e+008,18.2655,5.70876
3.11e+008,18.2569,5.70692
3.12e+008,18.2506,5.69706
3.13e+008,18.2454,5.68646
3.14e+008,18.2349,5.68054
3.15e+008,18.2248,5.67199
3.16e+008,18.2151,5.66583
3.17e+008,18.2082,5.65163
3.18e+008,18.1958,5.65122
3.19e+008,18.1968,5.63558
3.2e+008,18.1765,5.63197
3.21e+008,18.1739,5.6251
3.22e+008,18.1636,5.61507
3.23e+008,18.1576,5.60983
3.24e+008,18.1482,5.59948
3.25e+008,18.1402,5.5919
3.26e+008,18.1382,5.58657
3.27e+008,18.1255,5.57604
3.28e+008,18.1227,5.56333
3.29e+008,18.1126,5.55926
3.3e+008,18.0967,5.54916
3.31e+008,18.0991,5.55206
3.32e+008,18.0912,5.53916
3.33e+008,18.077,5.53251
3.34e+008,18.073,5.52458
3.35e+008,18.0668,5.51763
3.36e+008,18.0601,5.50345
3.37e+008,18.0617,5.49939
3.38e+008,18.0475,5.49127
3.39e+008,18.0414,5.48712
3.4e+008,18.0385,5.47981
3.41e+008,18.0329,5.47472
3.42e+008,18.026,5.46417
3.43e+008,18.0218,5.45884
3.44e+008,18.0124,5.45395
3.45e+008,18.0065,5.44436
3.46e+008,18.0012,5.44082
3.47e+008,18.0001,5.43236
3.48e+008,17.99,5.41938
3.49e+008,17.9899,5.41897
3.5e+008,17.9831,5.4078
3.51e+008,17.9743,5.40506
3.52e+008,17.9749,5.39288
3.53e+008,17.9698,5.38834
3.54e+008,17.9632,5.38335
3.55e+008,17.9511,5.38222
3.56e+008,17.9462,5.36528
3.57e+008,17.9501,5.36106
3.58e+008,17.9426,5.35807
3.59e+008,17.9388,5.34284
3.6e+008,17.9371,5.33818
3.61e+008,17.9319,5.33725
3.62e+008,17.9243,5.33082
3.63e+008,17.9223,5.32144
3.64e+008,17.9156,5.31865
3.65e+008,17.9091,5.31557
3.66e+008,17.9101,5.30157
3.67e+008,17.9064,5.29714
3.68e+008,17.8973,5.29414
3.69e+008,17.9013,5.28241
3.7e+008,17.8929,5.27641
3.71e+008,17.8916,5.26923
3.72e+008,17.8871,5.26188
3.73e+008,17.8833,5.25729
3.74e+008,17.8822,5.25429
3.75e+008,17.8788,5.24756
3.76e+008,17.8746,5.24403
3.77e+008,17.8711,5.23929
3.78e+008,17.8642,5.22582
3.79e+008,17.8633,5.22317
3.8e+008,17.8621,5.21798
3.81e+008,17.86,5.21324
3.82e+008,17.8551,5.20231
3.83e+008,17.8534,5.19942
3.84e+008,17.8511,5.19294
3.85e+008,17.846,5.1883
3.86e+008,17.8398,5.18444
3.87e+008,17.8374,5.18075
3.88e+008,17.8284,5.17108
3.89e+008,17.834,5.16737
3.9e+008,17.8291,5.16099
3.91e+008,17.8285,5.15482
3.92e+008,17.8249,5.1505
3.93e+008,17.8167,5.14421
3.94e+008,17.8136,5.14436
3.95e+008,17.8126,5.13581
3.96e+008,17.8115,5.13249
3.97e+008,17.8039,5.12668
3.98e+008,17.8006,5.11912
3.99e+008,17.7993,5.11442
4e+008,17.7927,5.10907
4.01e+008,17.7919,5.1088
4.02e+008,17.7921,5.10206
4.03e+008,17.7866,5.09346
4.04e+008,17.7835,5.08354
4.05e+008,17.7789,5.08923
4.06e+008,17.7754,5.07601
4.07e+008,17.7733,5.07265
4.08e+008,17.7716,5.06697
4.09e+008,17.7657,5.06203
4.1e+008,17.7597,5.05815
4.11e+008,17.7576,5.05316
4.12e+008,17.7532,5.04527
4.13e+008,17.7489,5.03818
4.14e+008,17.7433,5.03529
4.15e+008,17.7348,5.028
4.16e+008,17.7353,5.02645
4.17e+008,17.7271,5.02592
4.18e+008,17.7266,5.01407
4.19e+008,17.7245,5.01614
4.2e+008,17.7165,5.00534
4.21e+008,17.7118,5.00297
4.22e+008,17.7093,4.99852
4.23e+008,17.7036,4.99181
4.24e+008,17.7,4.98817
4.25e+008,17.694,4.98993
4.26e+008,17.6919,4.9802
4.27e+008,17.6827,4.97827
4.28e+008,17.6793,4.97081
4.29e+008,17.6715,4.96356
4.3e+008,17.6653,4.95633
4.31e+008,17.6608,4.95429
4.32e+008,17.6612,4.94915
4.33e+008,17.6561,4.94336
4.34e+008,17.645,4.94623
4.35e+008,17.6447,4.93639
4.36e+008,17.6339,4.93053
4.37e+008,17.6285,4.92853
4.38e+008,17.6251,4.92594
4.39e+008,17.6239,4.92291
4.4e+008,17.6085,4.91297
4.41e+008,17.606,4.908
4.42e+008,17.6052,4.90489
4.43e+008,17.5978,4.90406
4.44e+008,17.5895,4.89583
4.45e+008,17.5856,4.8904
4.46e+008,17.5815,4.89252
4.47e+008,17.571,4.88229
4.48e+008,17.5634,4.88125
4.49e+008,17.558,4.87815
4.5e+008,17.5563,4.86765
4.51e+008,17.5511,4.86383
4.52e+008,17.5419,4.8636
4.53e+008,17.5317,4.86041
4.54e+008,17.5303,4.85054
4.55e+008,17.5226,4.84687
4.56e+008,17.5198,4.84736
4.57e+008,17.512,4.84192
4.58e+008,17.5013,4.83687
4.59e+008,17.4996,4.83146
4.6e+008,17.4934,4.82789
4.61e+008,17.4875,4.82246
4.62e+008,17.481,4.82429
4.63e+008,17.4756,4.81567
4.64e+008,17.467,4.81184
4.65e+008,17.4593,4.80875
4.66e+008,17.4569,4.80311
4.67e+008,17.4495,4.79743
4.68e+008,17.4403,4.7942
4.69e+008,17.4387,4.79051
4.7e+008,17.4315,4.7833
4.71e+008,17.4239,4.78459
4.72e+008,17.4216,4.77952
4.73e+008,17.415,4.7756
4.74e+008,17.4074,4.77532
4.75e+008,17.399,4.76886
4.76e+008,17.3966,4.76217
4.77e+008,17.3925,4.75722
4.78e+008,17.3816,4.75857
4.79e+008,17.3779,4.75352
4.8e+008,17.3738,4.74751
4.81e+008,17.3709,4.74393
4.82e+008,17.3646,4.73903
4.83e+008,17.3553,4.7391
4.84e+008,17.352,4.73112
4.85e+008,17.3484,4.72713
4.86e+008,17.3411,4.72509
4.87e+008,17.3371,4.72467
4.88e+008,17.3334,4.71754
4.89e+008,17.3293,4.71482
4.9e+008,17.3232,4.71156
4.91e+008,17.3175,4.70678
4.92e+008,17.3154,4.70182
4.93e+008,17.3082,4.7041
4.94e+008,17.3014,4.69756
4.95e+008,17.3009,4.69356
4.96e+008,17.2993,4.68817
4.97e+008,17.2908,4.69038
4.98e+008,17.2832,4.6814
4.99e+008,17.2827,4.68073
5e+008,17.2792,4.678

