Coaxial Probe Method (Opt. 004) 20.0.22083101
Keysight Technologies,P9371A,MY57211749,A.17.25.05

Ch 1
Port:, 1
Probe:, High temperature
Std1:, Air
Std2:, Short
Std3:, 25.0C water
IFBW:, 300.000000 Hz
Power:, -5.000000 dBm
Date:,"Tuesday, February 27, 2024 18:00:51"
frequency(Hz),e',e''
3e+008,20.3581,8.66558
3.01e+008,20.3429,8.64648
3.02e+008,20.3358,8.63295
3.03e+008,20.3225,8.61387
3.04e+008,20.3139,8.60106
3.05e+008,20.3059,8.58788
3.06e+008,20.2937,8.57155
3.07e+008,20.2896,8.55683
3.08e+008,20.278,8.53836
3.09e+008,20.2636,8.51828
3.1e+008,20.2497,8.50484
3.11e+008,20.2459,8.49109
3.12e+008,20.2347,8.47449
3.13e+008,20.2202,8.46043
3.14e+008,20.2157,8.44295
3.15e+008,20.2011,8.43408
3.16e+008,20.1942,8.41417
3.17e+008,20.1821,8.3997
3.18e+008,20.1717,8.39129
3.19e+008,20.1647,8.37415
3.2e+008,20.1516,8.35793
3.21e+008,20.1444,8.34239
3.22e+008,20.1329,8.32775
3.23e+008,20.1209,8.31586
3.24e+008,20.1068,8.30252
3.25e+008,20.097,8.28813
3.26e+008,20.0862,8.27374
3.27e+008,20.0732,8.25383
3.28e+008,20.0661,8.24338
3.29e+008,20.0554,8.22809
3.3e+008,20.0425,8.21301
3.31e+008,20.0375,8.204
3.32e+008,20.0288,8.18214
3.33e+008,20.0092,8.17801
3.34e+008,19.9983,8.15873
3.35e+008,19.9917,8.14571
3.36e+008,19.9769,8.13177
3.37e+008,19.9727,8.11972
3.38e+008,19.9564,8.10076
3.39e+008,19.9412,8.09175
3.4e+008,19.9323,8.07676
3.41e+008,19.9228,8.06715
3.42e+008,19.9096,8.0551
3.43e+008,19.9,8.04028
3.44e+008,19.8859,8.03107
3.45e+008,19.8741,8.0125
3.46e+008,19.862,8.00404
3.47e+008,19.8538,7.98756
3.48e+008,19.8478,7.97365
3.49e+008,19.8393,7.96546
3.5e+008,19.8221,7.94877
3.51e+008,19.8092,7.94133
3.52e+008,19.8022,7.91896
3.53e+008,19.7919,7.91606
3.54e+008,19.7784,7.90176
3.55e+008,19.7664,7.89232
3.56e+008,19.7523,7.87556
3.57e+008,19.74,7.86566
3.58e+008,19.731,7.85051
3.59e+008,19.7189,7.8354
3.6e+008,19.7158,7.82362
3.61e+008,19.699,7.81593
3.62e+008,19.684,7.79772
3.63e+008,19.6764,7.78815
3.64e+008,19.6671,7.77697
3.65e+008,19.6525,7.76674
3.66e+008,19.6488,7.75102
3.67e+008,19.6369,7.74448
3.68e+008,19.6247,7.73082
3.69e+008,19.6141,7.7195
3.7e+008,19.6014,7.70617
3.71e+008,19.5937,7.69149
3.72e+008,19.5841,7.682
3.73e+008,19.5707,7.67268
3.74e+008,19.5615,7.66061
3.75e+008,19.5511,7.64641
3.76e+008,19.5407,7.63564
3.77e+008,19.5299,7.62873
3.78e+008,19.5195,7.61631
3.79e+008,19.5081,7.6049
3.8e+008,19.5009,7.59544
3.81e+008,19.4922,7.58155
3.82e+008,19.4805,7.56947
3.83e+008,19.4743,7.55915
3.84e+008,19.4648,7.54687
3.85e+008,19.4542,7.53941
3.86e+008,19.4431,7.52864
3.87e+008,19.4303,7.51528
3.88e+008,19.4231,7.5034
3.89e+008,19.4195,7.49363
3.9e+008,19.4049,7.48621
3.91e+008,19.3975,7.47099
3.92e+008,19.3925,7.46552
3.93e+008,19.3818,7.45418
3.94e+008,19.3695,7.44451
3.95e+008,19.364,7.43104
3.96e+008,19.3541,7.42464
3.97e+008,19.3483,7.41761
3.98e+008,19.3323,7.40569
3.99e+008,19.3337,7.39061
4e+008,19.3255,7.38456
4.01e+008,19.3176,7.37301
4.02e+008,19.3071,7.36627
4.03e+008,19.3016,7.35326
4.04e+008,19.2915,7.34073
4.05e+008,19.286,7.33958
4.06e+008,19.2793,7.32285
4.07e+008,19.2674,7.31372
4.08e+008,19.2659,7.305
4.09e+008,19.2586,7.29481
4.1e+008,19.2467,7.28644
4.11e+008,19.2436,7.27439
4.12e+008,19.2419,7.267
4.13e+008,19.2297,7.25822
4.14e+008,19.2221,7.24675
4.15e+008,19.2126,7.23765
4.16e+008,19.2083,7.2322
4.17e+008,19.2005,7.21729
4.18e+008,19.1975,7.21412
4.19e+008,19.1946,7.20257
4.2e+008,19.1807,7.18987
4.21e+008,19.1819,7.18705
4.22e+008,19.1701,7.17644
4.23e+008,19.1658,7.16179
4.24e+008,19.1645,7.15658
4.25e+008,19.1557,7.14417
4.26e+008,19.1532,7.14126
4.27e+008,19.1447,7.13248
4.28e+008,19.1386,7.12648
4.29e+008,19.1371,7.11303
4.3e+008,19.1286,7.10198
4.31e+008,19.1254,7.09916
4.32e+008,19.1197,7.08638
4.33e+008,19.1173,7.07731
4.34e+008,19.1105,7.07661
4.35e+008,19.1058,7.06047
4.36e+008,19.0988,7.05651
4.37e+008,19.0939,7.04979
4.38e+008,19.0917,7.04204
4.39e+008,19.0869,7.03687
4.4e+008,19.08,7.02547
4.41e+008,19.0771,7.01487
4.42e+008,19.0731,7.00926
4.43e+008,19.0636,7.0016
4.44e+008,19.0622,6.99221
4.45e+008,19.0588,6.98267
4.46e+008,19.0535,6.97454
4.47e+008,19.0521,6.96821
4.48e+008,19.0449,6.96267
4.49e+008,19.0402,6.95179
4.5e+008,19.0367,6.94729
4.51e+008,19.0301,6.93475
4.52e+008,19.0295,6.93008
4.53e+008,19.0216,6.92248
4.54e+008,19.0169,6.91155
4.55e+008,19.0165,6.90561
4.56e+008,19.0147,6.90255
4.57e+008,19.0078,6.89529
4.58e+008,19.007,6.88076
4.59e+008,19.0003,6.88174
4.6e+008,18.9969,6.86919
4.61e+008,18.9907,6.85929
4.62e+008,18.9901,6.8574
4.63e+008,18.9857,6.85086
4.64e+008,18.9825,6.84006
4.65e+008,18.9798,6.83479
4.66e+008,18.9729,6.8237
4.67e+008,18.9731,6.81701
4.68e+008,18.9678,6.81043
4.69e+008,18.966,6.80323
4.7e+008,18.9593,6.79953
4.71e+008,18.955,6.79206
4.72e+008,18.9533,6.78543
4.73e+008,18.949,6.77759
4.74e+008,18.9474,6.7735
4.75e+008,18.9468,6.76644
4.76e+008,18.9409,6.758
4.77e+008,18.9375,6.75311
4.78e+008,18.9334,6.742
4.79e+008,18.9314,6.73831
4.8e+008,18.9279,6.73028
4.81e+008,18.9225,6.72445
4.82e+008,18.9212,6.71318
4.83e+008,18.9193,6.71019
4.84e+008,18.9162,6.70019
4.85e+008,18.9081,6.69405
4.86e+008,18.9073,6.68641
4.87e+008,18.9048,6.68202
4.88e+008,18.9002,6.67212
4.89e+008,18.8978,6.6677
4.9e+008,18.8935,6.66009
4.91e+008,18.8927,6.65303
4.92e+008,18.8899,6.64784
4.93e+008,18.8825,6.64495
4.94e+008,18.8846,6.63651
4.95e+008,18.8771,6.62619
4.96e+008,18.8767,6.62116
4.97e+008,18.8724,6.61572
4.98e+008,18.8723,6.60614
4.99e+008,18.8691,6.604
5e+008,18.8638,6.59942

