Coaxial Probe Method (Opt. 004) 20.0.22083101
Keysight Technologies,P9371A,MY57211749,A.17.25.05

Ch 1
Port:, 1
Probe:, High temperature
Std1:, Air
Std2:, Short
Std3:, 25.0C water
IFBW:, 300.000000 Hz
Power:, -5.000000 dBm
Date:,"Tuesday, February 27, 2024 18:20:37"
frequency(Hz),e',e''
3e+008,25.9068,10.7784
3.01e+008,25.8905,10.7563
3.02e+008,25.8729,10.7427
3.03e+008,25.8617,10.7259
3.04e+008,25.848,10.6941
3.05e+008,25.8417,10.6845
3.06e+008,25.8213,10.6725
3.07e+008,25.8078,10.6511
3.08e+008,25.7984,10.6261
3.09e+008,25.7799,10.6078
3.1e+008,25.7693,10.5882
3.11e+008,25.7516,10.5688
3.12e+008,25.741,10.5503
3.13e+008,25.7242,10.5294
3.14e+008,25.7133,10.517
3.15e+008,25.6936,10.5042
3.16e+008,25.6855,10.4827
3.17e+008,25.6718,10.4615
3.18e+008,25.6534,10.449
3.19e+008,25.6465,10.4307
3.2e+008,25.6311,10.4141
3.21e+008,25.625,10.3957
3.22e+008,25.6017,10.3721
3.23e+008,25.5943,10.3625
3.24e+008,25.5749,10.3425
3.25e+008,25.5625,10.3257
3.26e+008,25.5552,10.3075
3.27e+008,25.5387,10.2937
3.28e+008,25.5283,10.2738
3.29e+008,25.5185,10.2551
3.3e+008,25.503,10.2464
3.31e+008,25.4903,10.2313
3.32e+008,25.4864,10.2132
3.33e+008,25.4637,10.1954
3.34e+008,25.451,10.1751
3.35e+008,25.4423,10.1589
3.36e+008,25.426,10.1456
3.37e+008,25.4234,10.1261
3.38e+008,25.4039,10.1119
3.39e+008,25.3882,10.0991
3.4e+008,25.3822,10.0822
3.41e+008,25.3702,10.0658
3.42e+008,25.366,10.0498
3.43e+008,25.3482,10.0343
3.44e+008,25.3349,10.0259
3.45e+008,25.323,10.0029
3.46e+008,25.3131,9.99461
3.47e+008,25.3041,9.97457
3.48e+008,25.2991,9.95566
3.49e+008,25.2874,9.94533
3.5e+008,25.2704,9.93021
3.51e+008,25.2609,9.91937
3.52e+008,25.2509,9.89643
3.53e+008,25.2404,9.88676
3.54e+008,25.2355,9.868
3.55e+008,25.2197,9.85674
3.56e+008,25.2114,9.84436
3.57e+008,25.2022,9.82807
3.58e+008,25.1882,9.81335
3.59e+008,25.1785,9.7946
3.6e+008,25.1689,9.77904
3.61e+008,25.1642,9.77258
3.62e+008,25.1449,9.75482
3.63e+008,25.1418,9.74154
3.64e+008,25.1315,9.72523
3.65e+008,25.1174,9.71775
3.66e+008,25.1145,9.69228
3.67e+008,25.1019,9.68944
3.68e+008,25.0926,9.67464
3.69e+008,25.0839,9.6579
3.7e+008,25.0752,9.64666
3.71e+008,25.0658,9.62949
3.72e+008,25.0572,9.61859
3.73e+008,25.0531,9.60204
3.74e+008,25.045,9.58956
3.75e+008,25.0305,9.57391
3.76e+008,25.0281,9.56156
3.77e+008,25.0142,9.55229
3.78e+008,25.0088,9.5332
3.79e+008,24.9964,9.52195
3.8e+008,24.9909,9.5135
3.81e+008,24.9826,9.49808
3.82e+008,24.9705,9.48404
3.83e+008,24.9679,9.47087
3.84e+008,24.96,9.46013
3.85e+008,24.9457,9.44372
3.86e+008,24.938,9.43307
3.87e+008,24.9333,9.4238
3.88e+008,24.9202,9.40681
3.89e+008,24.9201,9.39489
3.9e+008,24.91,9.38626
3.91e+008,24.902,9.37292
3.92e+008,24.8963,9.36226
3.93e+008,24.8838,9.34673
3.94e+008,24.8761,9.33744
3.95e+008,24.8703,9.32369
3.96e+008,24.8621,9.31441
3.97e+008,24.8536,9.30343
3.98e+008,24.8468,9.28826
3.99e+008,24.8401,9.27694
4e+008,24.835,9.26498
4.01e+008,24.8218,9.25997
4.02e+008,24.8197,9.24417
4.03e+008,24.8105,9.22893
4.04e+008,24.8029,9.21828
4.05e+008,24.7967,9.21388
4.06e+008,24.7882,9.19812
4.07e+008,24.7791,9.18746
4.08e+008,24.7726,9.17323
4.09e+008,24.7669,9.15927
4.1e+008,24.7543,9.15764
4.11e+008,24.7483,9.13966
4.12e+008,24.7403,9.13163
4.13e+008,24.7317,9.11749
4.14e+008,24.7271,9.10442
4.15e+008,24.7162,9.09469
4.16e+008,24.7112,9.09255
4.17e+008,24.6993,9.07732
4.18e+008,24.693,9.06305
4.19e+008,24.6883,9.05574
4.2e+008,24.6773,9.04373
4.21e+008,24.675,9.03341
4.22e+008,24.6564,9.02141
4.23e+008,24.6579,9.01028
4.24e+008,24.6463,9.00284
4.25e+008,24.6381,8.98789
4.26e+008,24.6312,8.98191
4.27e+008,24.6227,8.96921
4.28e+008,24.6162,8.96277
4.29e+008,24.6067,8.94956
4.3e+008,24.5979,8.93918
4.31e+008,24.5873,8.92539
4.32e+008,24.5816,8.91706
4.33e+008,24.572,8.90437
4.34e+008,24.5638,8.89808
4.35e+008,24.5555,8.88554
4.36e+008,24.5482,8.87314
4.37e+008,24.5412,8.86797
4.38e+008,24.5334,8.8588
4.39e+008,24.5226,8.85338
4.4e+008,24.5108,8.8388
4.41e+008,24.5047,8.83074
4.42e+008,24.4985,8.81731
4.43e+008,24.4911,8.81526
4.44e+008,24.4803,8.79722
4.45e+008,24.4733,8.78986
4.46e+008,24.4634,8.78365
4.47e+008,24.4508,8.77377
4.48e+008,24.4446,8.76317
4.49e+008,24.4355,8.75647
4.5e+008,24.4301,8.7434
4.51e+008,24.4209,8.73239
4.52e+008,24.4127,8.72384
4.53e+008,24.3999,8.71537
4.54e+008,24.3902,8.70431
4.55e+008,24.3843,8.69555
4.56e+008,24.3768,8.69114
4.57e+008,24.3656,8.68344
4.58e+008,24.3563,8.66375
4.59e+008,24.3473,8.66081
4.6e+008,24.3426,8.65298
4.61e+008,24.3309,8.64486
4.62e+008,24.3231,8.63648
4.63e+008,24.3124,8.62428
4.64e+008,24.3022,8.61886
4.65e+008,24.2963,8.60718
4.66e+008,24.2902,8.60264
4.67e+008,24.2807,8.58832
4.68e+008,24.2687,8.58013
4.69e+008,24.2655,8.5731
4.7e+008,24.2535,8.56666
4.71e+008,24.2472,8.55733
4.72e+008,24.2365,8.54851
4.73e+008,24.2324,8.53797
4.74e+008,24.2216,8.53467
4.75e+008,24.2171,8.5288
4.76e+008,24.2102,8.51236
4.77e+008,24.1982,8.51192
4.78e+008,24.1875,8.49988
4.79e+008,24.1838,8.49295
4.8e+008,24.1779,8.48274
4.81e+008,24.1659,8.47616
4.82e+008,24.1584,8.46468
4.83e+008,24.148,8.46048
4.84e+008,24.1469,8.45272
4.85e+008,24.132,8.44566
4.86e+008,24.1302,8.4339
4.87e+008,24.1217,8.4305
4.88e+008,24.1156,8.41823
4.89e+008,24.1075,8.4117
4.9e+008,24.1015,8.40892
4.91e+008,24.0942,8.39965
4.92e+008,24.0871,8.39042
4.93e+008,24.0823,8.38445
4.94e+008,24.0746,8.37633
4.95e+008,24.0686,8.3694
4.96e+008,24.0618,8.36293
4.97e+008,24.0543,8.35581
4.98e+008,24.0481,8.34698
4.99e+008,24.0443,8.33831
5e+008,24.0335,8.33173

