Coaxial Probe Method (Opt. 004) 20.0.22083101
Keysight Technologies,P9371A,MY57211749,A.17.25.05

Ch 1
Port:, 1
Probe:, High temperature
Std1:, Air
Std2:, Short
Std3:, 25.0C water
IFBW:, 300.000000 Hz
Power:, -5.000000 dBm
Date:,"Tuesday, February 27, 2024 18:23:12"
frequency(Hz),e',e''
3e+008,8.60805,1.70213
3.01e+008,8.60297,1.69315
3.02e+008,8.60216,1.69572
3.03e+008,8.58823,1.69367
3.04e+008,8.59935,1.69268
3.05e+008,8.5944,1.6993
3.06e+008,8.58522,1.69791
3.07e+008,8.58909,1.69591
3.08e+008,8.58474,1.69127
3.09e+008,8.58194,1.69029
3.1e+008,8.57873,1.68292
3.11e+008,8.5735,1.68596
3.12e+008,8.56714,1.68483
3.13e+008,8.57077,1.68098
3.14e+008,8.56366,1.68394
3.15e+008,8.56254,1.67823
3.16e+008,8.55816,1.67841
3.17e+008,8.55194,1.67353
3.18e+008,8.54728,1.67809
3.19e+008,8.54873,1.6739
3.2e+008,8.54269,1.67606
3.21e+008,8.54055,1.6714
3.22e+008,8.54267,1.66544
3.23e+008,8.5317,1.66634
3.24e+008,8.53426,1.66774
3.25e+008,8.52398,1.66732
3.26e+008,8.52528,1.66051
3.27e+008,8.51881,1.65597
3.28e+008,8.518,1.66157
3.29e+008,8.51158,1.65934
3.3e+008,8.50665,1.65812
3.31e+008,8.51,1.65948
3.32e+008,8.50525,1.6578
3.33e+008,8.50218,1.65344
3.34e+008,8.49635,1.65056
3.35e+008,8.49173,1.65205
3.36e+008,8.49142,1.64866
3.37e+008,8.49108,1.64537
3.38e+008,8.48614,1.64276
3.39e+008,8.4768,1.64509
3.4e+008,8.47492,1.6402
3.41e+008,8.47416,1.64036
3.42e+008,8.47411,1.64154
3.43e+008,8.47149,1.63612
3.44e+008,8.46161,1.63894
3.45e+008,8.46691,1.63201
3.46e+008,8.45531,1.63522
3.47e+008,8.45724,1.63428
3.48e+008,8.4611,1.62297
3.49e+008,8.46064,1.62716
3.5e+008,8.45294,1.6256
3.51e+008,8.44964,1.62742
3.52e+008,8.44582,1.62082
3.53e+008,8.44779,1.62076
3.54e+008,8.44439,1.61922
3.55e+008,8.43922,1.62406
3.56e+008,8.43679,1.62115
3.57e+008,8.43835,1.6136
3.58e+008,8.43691,1.61652
3.59e+008,8.42953,1.60979
3.6e+008,8.43573,1.6134
3.61e+008,8.43307,1.61211
3.62e+008,8.42123,1.60681
3.63e+008,8.42829,1.60745
3.64e+008,8.42252,1.60532
3.65e+008,8.41887,1.60316
3.66e+008,8.42318,1.59892
3.67e+008,8.42019,1.60428
3.68e+008,8.41329,1.59868
3.69e+008,8.41877,1.59475
3.7e+008,8.41708,1.59788
3.71e+008,8.41613,1.59688
3.72e+008,8.41462,1.59005
3.73e+008,8.41743,1.59318
3.74e+008,8.41447,1.5891
3.75e+008,8.4147,1.59109
3.76e+008,8.41046,1.59074
3.77e+008,8.40749,1.58845
3.78e+008,8.40736,1.58899
3.79e+008,8.4084,1.58099
3.8e+008,8.4092,1.58409
3.81e+008,8.41061,1.58731
3.82e+008,8.4095,1.58015
3.83e+008,8.41032,1.58037
3.84e+008,8.41028,1.57847
3.85e+008,8.40891,1.58037
3.86e+008,8.40704,1.57935
3.87e+008,8.40451,1.5788
3.88e+008,8.40424,1.57645
3.89e+008,8.40549,1.57651
3.9e+008,8.40972,1.57869
3.91e+008,8.41045,1.57462
3.92e+008,8.41118,1.57863
3.93e+008,8.41334,1.56886
3.94e+008,8.40492,1.57757
3.95e+008,8.40774,1.57073
3.96e+008,8.40813,1.56988
3.97e+008,8.40835,1.57155
3.98e+008,8.40696,1.56775
3.99e+008,8.41581,1.56619
4e+008,8.41309,1.56942
4.01e+008,8.40852,1.5712
4.02e+008,8.4122,1.56968
4.03e+008,8.40906,1.56542
4.04e+008,8.40986,1.56159
4.05e+008,8.41216,1.57129
4.06e+008,8.40863,1.56112
4.07e+008,8.41233,1.56097
4.08e+008,8.41463,1.56693
4.09e+008,8.41448,1.56325
4.1e+008,8.41067,1.56018
4.11e+008,8.41137,1.56334
4.12e+008,8.41489,1.56027
4.13e+008,8.40896,1.56366
4.14e+008,8.41471,1.55515
4.15e+008,8.40822,1.55938
4.16e+008,8.41232,1.5571
4.17e+008,8.40712,1.55451
4.18e+008,8.41064,1.55456
4.19e+008,8.41289,1.55517
4.2e+008,8.4055,1.54662
4.21e+008,8.41122,1.5539
4.22e+008,8.40662,1.55312
4.23e+008,8.40567,1.54549
4.24e+008,8.40481,1.5489
4.25e+008,8.4061,1.54857
4.26e+008,8.40548,1.54852
4.27e+008,8.40044,1.55326
4.28e+008,8.39756,1.55004
4.29e+008,8.39895,1.54643
4.3e+008,8.39537,1.54169
4.31e+008,8.39691,1.54315
4.32e+008,8.39545,1.54077
4.33e+008,8.3939,1.54476
4.34e+008,8.39237,1.54685
4.35e+008,8.39063,1.54065
4.36e+008,8.3896,1.53637
4.37e+008,8.38037,1.53926
4.38e+008,8.38402,1.53694
4.39e+008,8.3818,1.54097
4.4e+008,8.37823,1.53295
4.41e+008,8.37623,1.53599
4.42e+008,8.37701,1.5335
4.43e+008,8.3691,1.5366
4.44e+008,8.36877,1.53166
4.45e+008,8.36624,1.52556
4.46e+008,8.36326,1.53275
4.47e+008,8.35956,1.52977
4.48e+008,8.35289,1.52949
4.49e+008,8.35176,1.52886
4.5e+008,8.34991,1.52591
4.51e+008,8.34585,1.52166
4.52e+008,8.34366,1.52302
4.53e+008,8.33784,1.52171
4.54e+008,8.33651,1.51782
4.55e+008,8.33153,1.51944
4.56e+008,8.32573,1.52029
4.57e+008,8.32625,1.51901
4.58e+008,8.31996,1.51557
4.59e+008,8.31851,1.51907
4.6e+008,8.3124,1.51554
4.61e+008,8.3096,1.51121
4.62e+008,8.30617,1.51707
4.63e+008,8.30184,1.51337
4.64e+008,8.30203,1.51212
4.65e+008,8.29299,1.50951
4.66e+008,8.29078,1.50665
4.67e+008,8.28565,1.5038
4.68e+008,8.28366,1.50249
4.69e+008,8.28226,1.50613
4.7e+008,8.27648,1.50598
4.71e+008,8.27153,1.50331
4.72e+008,8.26539,1.50431
4.73e+008,8.26382,1.5018
4.74e+008,8.26156,1.50533
4.75e+008,8.25732,1.50225
4.76e+008,8.2553,1.49706
4.77e+008,8.25245,1.50275
4.78e+008,8.24424,1.50117
4.79e+008,8.24266,1.49653
4.8e+008,8.24021,1.49444
4.81e+008,8.23735,1.49155
4.82e+008,8.22966,1.49127
4.83e+008,8.22907,1.4926
4.84e+008,8.22591,1.4885
4.85e+008,8.22005,1.4903
4.86e+008,8.22294,1.49083
4.87e+008,8.21838,1.48799
4.88e+008,8.21508,1.48559
4.89e+008,8.213,1.48481
4.9e+008,8.20785,1.48924
4.91e+008,8.20828,1.48764
4.92e+008,8.20625,1.48216
4.93e+008,8.19886,1.48531
4.94e+008,8.19806,1.48129
4.95e+008,8.19728,1.48406
4.96e+008,8.19631,1.48044
4.97e+008,8.19649,1.48511
4.98e+008,8.18893,1.47923
4.99e+008,8.19058,1.4802
5e+008,8.18396,1.48344

