Coaxial Probe Method (Opt. 004) 20.0.22083101
Keysight Technologies,P9371A,MY57211751,A.17.25.05

Ch 1
Port:, 1
Probe:, High temperature
Std1:, Air
Std2:, Short
Std3:, 25.0C water
IFBW:, 300.000000 Hz
Power:, -5.000000 dBm
Date:,"Saturday, July 06, 2024 18:30:35"
frequency(Hz),e',e''
3e+008,3.16349,0.745067
3.01e+008,3.16582,0.740156
3.02e+008,3.16026,0.743693
3.03e+008,3.17511,0.753357
3.04e+008,3.17375,0.746493
3.05e+008,3.17769,0.751142
3.06e+008,3.17867,0.750141
3.07e+008,3.18015,0.755514
3.08e+008,3.18338,0.761977
3.09e+008,3.18936,0.765106
3.1e+008,3.18608,0.760476
3.11e+008,3.19545,0.772639
3.12e+008,3.18819,0.773423
3.13e+008,3.20989,0.772815
3.14e+008,3.21022,0.773689
3.15e+008,3.21359,0.777557
3.16e+008,3.22661,0.777712
3.17e+008,3.22252,0.782441
3.18e+008,3.22695,0.787519
3.19e+008,3.2283,0.781716
3.2e+008,3.22811,0.787497
3.21e+008,3.2391,0.793525
3.22e+008,3.23767,0.791097
3.23e+008,3.24932,0.798977
3.24e+008,3.25032,0.804245
3.25e+008,3.24977,0.810487
3.26e+008,3.25067,0.80907
3.27e+008,3.25701,0.812217
3.28e+008,3.25709,0.812426
3.29e+008,3.26098,0.814453
3.3e+008,3.26236,0.818748
3.31e+008,3.26289,0.821508
3.32e+008,3.2605,0.822313
3.33e+008,3.26721,0.824882
3.34e+008,3.26549,0.828112
3.35e+008,3.26498,0.82562
3.36e+008,3.2647,0.828304
3.37e+008,3.2641,0.831357
3.38e+008,3.26508,0.835481
3.39e+008,3.26635,0.83374
3.4e+008,3.26148,0.840606
3.41e+008,3.26049,0.842371
3.42e+008,3.25833,0.839483
3.43e+008,3.25915,0.842625
3.44e+008,3.25632,0.841843
3.45e+008,3.25853,0.84613
3.46e+008,3.24997,0.845396
3.47e+008,3.25228,0.847809
3.48e+008,3.25336,0.847396
3.49e+008,3.24523,0.84545
3.5e+008,3.2446,0.845124
3.51e+008,3.24056,0.846466
3.52e+008,3.23332,0.845652
3.53e+008,3.23135,0.848692
3.54e+008,3.23051,0.846073
3.55e+008,3.22684,0.846425
3.56e+008,3.21843,0.851272
3.57e+008,3.20992,0.844263
3.58e+008,3.19813,0.849823
3.59e+008,3.20173,0.846696
3.6e+008,3.1945,0.848152
3.61e+008,3.18822,0.845838
3.62e+008,3.17954,0.842589
3.63e+008,3.1692,0.851522
3.64e+008,3.164,0.848834
3.65e+008,3.15442,0.851035
3.66e+008,3.14815,0.846963
3.67e+008,3.13854,0.84699
3.68e+008,3.13466,0.847235
3.69e+008,3.12793,0.850071
3.7e+008,3.11861,0.839701
3.71e+008,3.11166,0.844942
3.72e+008,3.10017,0.841235
3.73e+008,3.0977,0.84619
3.74e+008,3.09228,0.842289
3.75e+008,3.0791,0.843896
3.76e+008,3.07569,0.843055
3.77e+008,3.06661,0.836681
3.78e+008,3.05575,0.83419
3.79e+008,3.04852,0.844109
3.8e+008,3.03317,0.837637
3.81e+008,3.0299,0.83464
3.82e+008,3.01778,0.839216
3.83e+008,3.00882,0.837484
3.84e+008,2.99712,0.840532
3.85e+008,2.98672,0.839081
3.86e+008,2.98071,0.837077
3.87e+008,2.97607,0.841036
3.88e+008,2.9639,0.839762
3.89e+008,2.95813,0.835299
3.9e+008,2.94854,0.839061
3.91e+008,2.94215,0.842461
3.92e+008,2.93499,0.841022
3.93e+008,2.92567,0.842458
3.94e+008,2.91687,0.838968
3.95e+008,2.90876,0.838575
3.96e+008,2.90916,0.840096
3.97e+008,2.89952,0.835292
3.98e+008,2.89311,0.836753
3.99e+008,2.89085,0.837088
4e+008,2.88446,0.840832
4.01e+008,2.88393,0.838349
4.02e+008,2.87575,0.844337
4.03e+008,2.86949,0.843248
4.04e+008,2.86917,0.839479
4.05e+008,2.85805,0.843998
4.06e+008,2.85933,0.842298
4.07e+008,2.8535,0.841274
4.08e+008,2.85462,0.845233
4.09e+008,2.84768,0.845183
4.1e+008,2.84873,0.842553
4.11e+008,2.8464,0.845711
4.12e+008,2.84709,0.849521
4.13e+008,2.84438,0.851157
4.14e+008,2.84131,0.846083
4.15e+008,2.84065,0.852868
4.16e+008,2.83798,0.848587
4.17e+008,2.83888,0.853476
4.18e+008,2.83955,0.853403
4.19e+008,2.8434,0.85174
4.2e+008,2.84664,0.855982
4.21e+008,2.84712,0.855734
4.22e+008,2.8509,0.854977
4.23e+008,2.84991,0.852288
4.24e+008,2.85694,0.859106
4.25e+008,2.85932,0.85895
4.26e+008,2.86008,0.862297
4.27e+008,2.8643,0.862737
4.28e+008,2.86964,0.858838
4.29e+008,2.87493,0.859304
4.3e+008,2.88059,0.860932
4.31e+008,2.88296,0.865566
4.32e+008,2.88728,0.860226
4.33e+008,2.89078,0.863567
4.34e+008,2.89742,0.860463
4.35e+008,2.89993,0.866964
4.36e+008,2.90309,0.867538
4.37e+008,2.91207,0.863795
4.38e+008,2.91502,0.865946
4.39e+008,2.91944,0.870769
4.4e+008,2.92456,0.874713
4.41e+008,2.92777,0.872363
4.42e+008,2.93163,0.875438
4.43e+008,2.93505,0.87588
4.44e+008,2.93991,0.880408
4.45e+008,2.94241,0.879604
4.46e+008,2.94145,0.880112
4.47e+008,2.94058,0.885881
4.48e+008,2.94619,0.881287
4.49e+008,2.94697,0.883095
4.5e+008,2.95003,0.885969
4.51e+008,2.9497,0.891637
4.52e+008,2.94933,0.892771
4.53e+008,2.9546,0.889765
4.54e+008,2.95642,0.898808
4.55e+008,2.95719,0.895237
4.56e+008,2.95956,0.893032
4.57e+008,2.95793,0.89586
4.58e+008,2.9593,0.896777
4.59e+008,2.95956,0.902017
4.6e+008,2.96053,0.901657
4.61e+008,2.95788,0.900405
4.62e+008,2.95517,0.900791
4.63e+008,2.95112,0.904616
4.64e+008,2.95474,0.905985
4.65e+008,2.95097,0.909873
4.66e+008,2.95262,0.903793
4.67e+008,2.94914,0.906497
4.68e+008,2.94495,0.905317
4.69e+008,2.94485,0.907463
4.7e+008,2.93979,0.902494
4.71e+008,2.93672,0.904564
4.72e+008,2.93603,0.905443
4.73e+008,2.92853,0.907185
4.74e+008,2.92771,0.906572
4.75e+008,2.91863,0.906178
4.76e+008,2.91609,0.905257
4.77e+008,2.91289,0.905688
4.78e+008,2.90408,0.898959
4.79e+008,2.90134,0.90563
4.8e+008,2.89106,0.902656
4.81e+008,2.88619,0.902064
4.82e+008,2.88388,0.899122
4.83e+008,2.87834,0.896364
4.84e+008,2.86774,0.900067
4.85e+008,2.85989,0.900927
4.86e+008,2.8573,0.891562
4.87e+008,2.84819,0.894072
4.88e+008,2.84416,0.893734
4.89e+008,2.83572,0.891437
4.9e+008,2.82674,0.89298
4.91e+008,2.82231,0.883149
4.92e+008,2.80989,0.886392
4.93e+008,2.80391,0.885004
4.94e+008,2.79858,0.883049
4.95e+008,2.7848,0.882649
4.96e+008,2.77646,0.880466
4.97e+008,2.76695,0.882408
4.98e+008,2.75928,0.880084
4.99e+008,2.75241,0.876321
5e+008,2.74253,0.875135

