Coaxial Probe Method (Opt. 004) 20.0.22083101
Keysight Technologies,P9371A,MY57211751,A.17.25.05

Ch 1
Port:, 1
Probe:, High temperature
Std1:, Air
Std2:, Short
Std3:, 25.0C water
IFBW:, 300.000000 Hz
Power:, -5.000000 dBm
Date:,"Saturday, July 06, 2024 18:47:48"
frequency(Hz),e',e''
3e+008,2.81575,0.657775
3.01e+008,2.8222,0.658239
3.02e+008,2.81813,0.660909
3.03e+008,2.82968,0.666665
3.04e+008,2.83099,0.664278
3.05e+008,2.8459,0.665378
3.06e+008,2.84461,0.668624
3.07e+008,2.84983,0.679316
3.08e+008,2.85757,0.678963
3.09e+008,2.86398,0.683676
3.1e+008,2.8715,0.682872
3.11e+008,2.87817,0.693021
3.12e+008,2.87723,0.700016
3.13e+008,2.90227,0.689601
3.14e+008,2.90285,0.692487
3.15e+008,2.91616,0.696304
3.16e+008,2.9272,0.706121
3.17e+008,2.93113,0.7096
3.18e+008,2.93993,0.709527
3.19e+008,2.94285,0.711858
3.2e+008,2.95239,0.716517
3.21e+008,2.96627,0.724237
3.22e+008,2.96558,0.728686
3.23e+008,2.97563,0.730402
3.24e+008,2.9856,0.734939
3.25e+008,2.98492,0.743766
3.26e+008,2.99535,0.743568
3.27e+008,3.0031,0.744202
3.28e+008,3.00823,0.751451
3.29e+008,3.00998,0.752127
3.3e+008,3.01509,0.756419
3.31e+008,3.02382,0.760416
3.32e+008,3.02722,0.760546
3.33e+008,3.03036,0.768211
3.34e+008,3.03386,0.767779
3.35e+008,3.03944,0.771354
3.36e+008,3.03891,0.778692
3.37e+008,3.04057,0.774758
3.38e+008,3.04737,0.785988
3.39e+008,3.05028,0.784053
3.4e+008,3.04878,0.790136
3.41e+008,3.0525,0.787163
3.42e+008,3.05523,0.792011
3.43e+008,3.05248,0.793306
3.44e+008,3.05407,0.793033
3.45e+008,3.05749,0.797463
3.46e+008,3.04931,0.79482
3.47e+008,3.05567,0.795598
3.48e+008,3.04695,0.795454
3.49e+008,3.04486,0.799216
3.5e+008,3.04804,0.800514
3.51e+008,3.04454,0.797656
3.52e+008,3.04015,0.802541
3.53e+008,3.03275,0.797189
3.54e+008,3.02982,0.804243
3.55e+008,3.02771,0.801758
3.56e+008,3.0174,0.80506
3.57e+008,3.01216,0.803921
3.58e+008,3.00044,0.797259
3.59e+008,3.00311,0.804844
3.6e+008,2.99639,0.799626
3.61e+008,2.98407,0.796315
3.62e+008,2.98033,0.798353
3.63e+008,2.96535,0.800342
3.64e+008,2.96087,0.799765
3.65e+008,2.95028,0.796731
3.66e+008,2.94651,0.796749
3.67e+008,2.93082,0.793943
3.68e+008,2.92442,0.794967
3.69e+008,2.91198,0.796583
3.7e+008,2.90389,0.787398
3.71e+008,2.89165,0.786475
3.72e+008,2.88176,0.79072
3.73e+008,2.87314,0.79078
3.74e+008,2.86763,0.782761
3.75e+008,2.85285,0.785803
3.76e+008,2.84699,0.779598
3.77e+008,2.83506,0.776181
3.78e+008,2.821,0.78018
3.79e+008,2.81217,0.77732
3.8e+008,2.79503,0.768946
3.81e+008,2.78947,0.773667
3.82e+008,2.77394,0.774943
3.83e+008,2.76248,0.772919
3.84e+008,2.7507,0.769864
3.85e+008,2.7364,0.770646
3.86e+008,2.72381,0.766506
3.87e+008,2.7181,0.766495
3.88e+008,2.70276,0.758994
3.89e+008,2.69278,0.759097
3.9e+008,2.68275,0.759126
3.91e+008,2.67242,0.759947
3.92e+008,2.66441,0.755128
3.93e+008,2.65071,0.757573
3.94e+008,2.63891,0.751709
3.95e+008,2.62925,0.752772
3.96e+008,2.62444,0.751018
3.97e+008,2.61822,0.749736
3.98e+008,2.60559,0.746392
3.99e+008,2.60096,0.744019
4e+008,2.59281,0.747784
4.01e+008,2.58965,0.745729
4.02e+008,2.57763,0.745064
4.03e+008,2.57404,0.743618
4.04e+008,2.56751,0.736525
4.05e+008,2.55405,0.742168
4.06e+008,2.5533,0.738632
4.07e+008,2.54786,0.738906
4.08e+008,2.54607,0.738972
4.09e+008,2.54101,0.739574
4.1e+008,2.54062,0.7373
4.11e+008,2.54003,0.73769
4.12e+008,2.52907,0.740292
4.13e+008,2.53171,0.739048
4.14e+008,2.52698,0.736419
4.15e+008,2.52563,0.742344
4.16e+008,2.52065,0.738843
4.17e+008,2.51967,0.740569
4.18e+008,2.52266,0.741531
4.19e+008,2.52503,0.740834
4.2e+008,2.52593,0.741826
4.21e+008,2.52518,0.742674
4.22e+008,2.52712,0.741319
4.23e+008,2.52922,0.741698
4.24e+008,2.53734,0.744034
4.25e+008,2.53777,0.743643
4.26e+008,2.53909,0.750012
4.27e+008,2.54032,0.749098
4.28e+008,2.54896,0.747952
4.29e+008,2.55268,0.746204
4.3e+008,2.56302,0.751007
4.31e+008,2.56311,0.754233
4.32e+008,2.56925,0.750168
4.33e+008,2.5771,0.749483
4.34e+008,2.58007,0.752465
4.35e+008,2.5896,0.757613
4.36e+008,2.58887,0.75984
4.37e+008,2.60104,0.759472
4.38e+008,2.60539,0.760326
4.39e+008,2.61038,0.765972
4.4e+008,2.61861,0.768447
4.41e+008,2.62225,0.768726
4.42e+008,2.62868,0.773066
4.43e+008,2.63758,0.772261
4.44e+008,2.64122,0.77899
4.45e+008,2.64884,0.777718
4.46e+008,2.64641,0.780347
4.47e+008,2.65312,0.788842
4.48e+008,2.66098,0.784463
4.49e+008,2.66135,0.785097
4.5e+008,2.66841,0.792372
4.51e+008,2.67284,0.796316
4.52e+008,2.67635,0.799903
4.53e+008,2.68303,0.800527
4.54e+008,2.69155,0.808272
4.55e+008,2.69324,0.807127
4.56e+008,2.69948,0.809606
4.57e+008,2.70108,0.808463
4.58e+008,2.70226,0.81311
4.59e+008,2.70726,0.816618
4.6e+008,2.71059,0.81916
4.61e+008,2.70936,0.81651
4.62e+008,2.71367,0.820273
4.63e+008,2.71491,0.823417
4.64e+008,2.71799,0.830841
4.65e+008,2.71696,0.832506
4.66e+008,2.72261,0.832261
4.67e+008,2.72453,0.82972
4.68e+008,2.72131,0.834298
4.69e+008,2.72349,0.838859
4.7e+008,2.72327,0.835183
4.71e+008,2.72288,0.832864
4.72e+008,2.72395,0.837016
4.73e+008,2.72065,0.837889
4.74e+008,2.72018,0.840304
4.75e+008,2.71774,0.838907
4.76e+008,2.71593,0.83971
4.77e+008,2.71431,0.841922
4.78e+008,2.71094,0.836037
4.79e+008,2.71159,0.843946
4.8e+008,2.70513,0.841778
4.81e+008,2.70233,0.841026
4.82e+008,2.70111,0.837923
4.83e+008,2.69801,0.835523
4.84e+008,2.69507,0.837504
4.85e+008,2.68502,0.8446
4.86e+008,2.67997,0.835592
4.87e+008,2.67719,0.837795
4.88e+008,2.67186,0.836473
4.89e+008,2.667,0.831425
4.9e+008,2.65986,0.834828
4.91e+008,2.65375,0.831381
4.92e+008,2.64423,0.829284
4.93e+008,2.64265,0.826236
4.94e+008,2.63526,0.829045
4.95e+008,2.62634,0.83057
4.96e+008,2.61524,0.824878
4.97e+008,2.61132,0.824315
4.98e+008,2.60194,0.824232
4.99e+008,2.59241,0.820067
5e+008,2.58105,0.818378

