Coaxial Probe Method (Opt. 004) 20.0.22083101
Keysight Technologies,P9371A,MY57211751,A.17.25.05

Ch 1
Port:, 1
Probe:, High temperature
Std1:, Air
Std2:, Short
Std3:, 25.0C water
IFBW:, 300.000000 Hz
Power:, -5.000000 dBm
Date:,"Saturday, July 06, 2024 18:31:01"
frequency(Hz),e',e''
3e+008,2.87957,0.643925
3.01e+008,2.87952,0.644501
3.02e+008,2.88063,0.643239
3.03e+008,2.88945,0.648524
3.04e+008,2.88524,0.651748
3.05e+008,2.89941,0.64972
3.06e+008,2.89874,0.656873
3.07e+008,2.90019,0.658199
3.08e+008,2.90169,0.661889
3.09e+008,2.91035,0.667796
3.1e+008,2.91131,0.66598
3.11e+008,2.91562,0.675531
3.12e+008,2.91574,0.676853
3.13e+008,2.93053,0.674095
3.14e+008,2.93742,0.6786
3.15e+008,2.93705,0.679379
3.16e+008,2.95423,0.682284
3.17e+008,2.95443,0.688759
3.18e+008,2.95348,0.693085
3.19e+008,2.95705,0.691979
3.2e+008,2.96236,0.696554
3.21e+008,2.97457,0.699928
3.22e+008,2.9763,0.705277
3.23e+008,2.98466,0.705881
3.24e+008,2.98455,0.713095
3.25e+008,2.98995,0.722337
3.26e+008,2.99282,0.720331
3.27e+008,3.00518,0.720998
3.28e+008,2.99625,0.724959
3.29e+008,3.00318,0.722384
3.3e+008,3.00774,0.729572
3.31e+008,3.01266,0.733725
3.32e+008,3.00822,0.739269
3.33e+008,3.01484,0.746194
3.34e+008,3.01318,0.742589
3.35e+008,3.01933,0.748225
3.36e+008,3.01863,0.751943
3.37e+008,3.01372,0.751187
3.38e+008,3.02485,0.758973
3.39e+008,3.02116,0.760558
3.4e+008,3.02115,0.767479
3.41e+008,3.01339,0.757694
3.42e+008,3.01383,0.768602
3.43e+008,3.01811,0.762383
3.44e+008,3.01886,0.76523
3.45e+008,3.02165,0.770911
3.46e+008,3.0151,0.768747
3.47e+008,3.0158,0.770477
3.48e+008,3.0119,0.77195
3.49e+008,3.01099,0.767555
3.5e+008,3.00445,0.77243
3.51e+008,3.00424,0.774097
3.52e+008,2.99884,0.777878
3.53e+008,3.00279,0.773675
3.54e+008,2.99023,0.774138
3.55e+008,2.98863,0.774885
3.56e+008,2.98361,0.781257
3.57e+008,2.97411,0.774681
3.58e+008,2.96615,0.773995
3.59e+008,2.96796,0.781914
3.6e+008,2.96342,0.776941
3.61e+008,2.95169,0.776011
3.62e+008,2.94781,0.773829
3.63e+008,2.93298,0.777287
3.64e+008,2.92981,0.781745
3.65e+008,2.92236,0.777339
3.66e+008,2.91769,0.776459
3.67e+008,2.90738,0.776044
3.68e+008,2.89748,0.769472
3.69e+008,2.8889,0.776874
3.7e+008,2.88238,0.76771
3.71e+008,2.87259,0.770606
3.72e+008,2.86613,0.772897
3.73e+008,2.85572,0.771983
3.74e+008,2.84673,0.766596
3.75e+008,2.83932,0.770629
3.76e+008,2.82935,0.761737
3.77e+008,2.82649,0.763288
3.78e+008,2.81318,0.758969
3.79e+008,2.80797,0.765156
3.8e+008,2.79346,0.758073
3.81e+008,2.7857,0.758308
3.82e+008,2.77495,0.756916
3.83e+008,2.76485,0.759083
3.84e+008,2.75714,0.755841
3.85e+008,2.74795,0.75721
3.86e+008,2.73448,0.756456
3.87e+008,2.731,0.749968
3.88e+008,2.71904,0.750573
3.89e+008,2.70783,0.746395
3.9e+008,2.70093,0.750326
3.91e+008,2.69464,0.749319
3.92e+008,2.6855,0.747518
3.93e+008,2.67455,0.748498
3.94e+008,2.66312,0.742763
3.95e+008,2.65959,0.748205
3.96e+008,2.65611,0.741164
3.97e+008,2.64991,0.74173
3.98e+008,2.64088,0.739239
3.99e+008,2.63841,0.738661
4e+008,2.62924,0.741712
4.01e+008,2.62325,0.737676
4.02e+008,2.62097,0.739442
4.03e+008,2.61577,0.740478
4.04e+008,2.61186,0.731879
4.05e+008,2.60264,0.735265
4.06e+008,2.60383,0.736177
4.07e+008,2.59281,0.734532
4.08e+008,2.59458,0.737159
4.09e+008,2.59006,0.731781
4.1e+008,2.58875,0.728693
4.11e+008,2.59046,0.731559
4.12e+008,2.58383,0.73633
4.13e+008,2.58694,0.735956
4.14e+008,2.58169,0.732299
4.15e+008,2.58074,0.73612
4.16e+008,2.57518,0.730932
4.17e+008,2.57928,0.738681
4.18e+008,2.57939,0.73528
4.19e+008,2.58471,0.73479
4.2e+008,2.58259,0.736692
4.21e+008,2.58345,0.736564
4.22e+008,2.58746,0.737989
4.23e+008,2.58857,0.738416
4.24e+008,2.59343,0.742104
4.25e+008,2.59238,0.740092
4.26e+008,2.59662,0.743747
4.27e+008,2.60025,0.74435
4.28e+008,2.60301,0.740904
4.29e+008,2.60946,0.74018
4.3e+008,2.61644,0.744573
4.31e+008,2.6169,0.74488
4.32e+008,2.62373,0.747018
4.33e+008,2.62512,0.746547
4.34e+008,2.63213,0.746768
4.35e+008,2.63682,0.751263
4.36e+008,2.63746,0.753522
4.37e+008,2.64836,0.748976
4.38e+008,2.64862,0.754966
4.39e+008,2.65773,0.756725
4.4e+008,2.65613,0.759135
4.41e+008,2.66861,0.759883
4.42e+008,2.66984,0.762992
4.43e+008,2.67303,0.76623
4.44e+008,2.67492,0.766768
4.45e+008,2.68305,0.765694
4.46e+008,2.68032,0.769991
4.47e+008,2.68141,0.778291
4.48e+008,2.68819,0.771846
4.49e+008,2.68701,0.776836
4.5e+008,2.69425,0.778977
4.51e+008,2.69461,0.781527
4.52e+008,2.69572,0.785392
4.53e+008,2.69667,0.784395
4.54e+008,2.70099,0.792185
4.55e+008,2.7041,0.787749
4.56e+008,2.71028,0.792221
4.57e+008,2.7069,0.791104
4.58e+008,2.70883,0.79271
4.59e+008,2.7097,0.79543
4.6e+008,2.71356,0.800352
4.61e+008,2.70707,0.799073
4.62e+008,2.71063,0.800676
4.63e+008,2.70904,0.804387
4.64e+008,2.7106,0.808699
4.65e+008,2.7076,0.808889
4.66e+008,2.70927,0.808784
4.67e+008,2.71119,0.807293
4.68e+008,2.7054,0.810672
4.69e+008,2.71127,0.81032
4.7e+008,2.7058,0.809264
4.71e+008,2.70257,0.807793
4.72e+008,2.70375,0.811465
4.73e+008,2.69741,0.814079
4.74e+008,2.69557,0.813198
4.75e+008,2.68824,0.813558
4.76e+008,2.69309,0.813003
4.77e+008,2.68458,0.815946
4.78e+008,2.67641,0.81203
4.79e+008,2.67526,0.816129
4.8e+008,2.66815,0.812846
4.81e+008,2.66605,0.8127
4.82e+008,2.66392,0.811275
4.83e+008,2.65937,0.809124
4.84e+008,2.65111,0.812982
4.85e+008,2.64268,0.813823
4.86e+008,2.63885,0.803922
4.87e+008,2.63188,0.806413
4.88e+008,2.62823,0.806712
4.89e+008,2.61928,0.805805
4.9e+008,2.6127,0.807278
4.91e+008,2.60766,0.802196
4.92e+008,2.59565,0.80087
4.93e+008,2.59538,0.798144
4.94e+008,2.58956,0.801008
4.95e+008,2.57759,0.796519
4.96e+008,2.5696,0.792151
4.97e+008,2.56528,0.793493
4.98e+008,2.55492,0.795888
4.99e+008,2.54735,0.790235
5e+008,2.54106,0.787447

