Coaxial Probe Method (Opt. 004) 20.0.22083101
Keysight Technologies,P9371A,MY57211751,A.17.25.05

Ch 1
Port:, 1
Probe:, High temperature
Std1:, Air
Std2:, Short
Std3:, 25.0C water
IFBW:, 300.000000 Hz
Power:, -5.000000 dBm
Date:,"Saturday, July 06, 2024 18:38:17"
frequency(Hz),e',e''
3e+008,2.73946,0.607398
3.01e+008,2.74718,0.605359
3.02e+008,2.7505,0.607491
3.03e+008,2.76319,0.610441
3.04e+008,2.76402,0.617765
3.05e+008,2.77904,0.61463
3.06e+008,2.78075,0.620434
3.07e+008,2.79119,0.625158
3.08e+008,2.793,0.625585
3.09e+008,2.80494,0.630272
3.1e+008,2.8123,0.636161
3.11e+008,2.82156,0.645984
3.12e+008,2.82642,0.646819
3.13e+008,2.84087,0.641306
3.14e+008,2.85186,0.650499
3.15e+008,2.85675,0.647102
3.16e+008,2.8744,0.658818
3.17e+008,2.87558,0.659103
3.18e+008,2.88705,0.664624
3.19e+008,2.89418,0.6577
3.2e+008,2.8984,0.668349
3.21e+008,2.91347,0.676793
3.22e+008,2.91629,0.67402
3.23e+008,2.92575,0.687183
3.24e+008,2.93605,0.682808
3.25e+008,2.93874,0.69554
3.26e+008,2.94357,0.697428
3.27e+008,2.95088,0.697224
3.28e+008,2.95624,0.709773
3.29e+008,2.96143,0.701729
3.3e+008,2.96692,0.712796
3.31e+008,2.9716,0.715964
3.32e+008,2.97202,0.716861
3.33e+008,2.97591,0.72674
3.34e+008,2.98037,0.720698
3.35e+008,2.98377,0.726445
3.36e+008,2.98442,0.725057
3.37e+008,2.9863,0.730875
3.38e+008,2.99521,0.737129
3.39e+008,2.99181,0.738101
3.4e+008,2.99138,0.742984
3.41e+008,2.99439,0.741335
3.42e+008,2.99292,0.739986
3.43e+008,2.99034,0.747137
3.44e+008,2.99128,0.745487
3.45e+008,2.99409,0.74975
3.46e+008,2.98466,0.747155
3.47e+008,2.99165,0.752551
3.48e+008,2.98543,0.751954
3.49e+008,2.98247,0.751332
3.5e+008,2.9803,0.749928
3.51e+008,2.97189,0.752733
3.52e+008,2.96982,0.755202
3.53e+008,2.96392,0.750441
3.54e+008,2.95687,0.75319
3.55e+008,2.95285,0.751333
3.56e+008,2.94792,0.758193
3.57e+008,2.937,0.75021
3.58e+008,2.92311,0.753209
3.59e+008,2.921,0.757548
3.6e+008,2.9165,0.752763
3.61e+008,2.90613,0.754749
3.62e+008,2.8971,0.746118
3.63e+008,2.8799,0.750126
3.64e+008,2.87441,0.748576
3.65e+008,2.8677,0.745788
3.66e+008,2.85447,0.745697
3.67e+008,2.84792,0.737189
3.68e+008,2.83286,0.744717
3.69e+008,2.82332,0.739645
3.7e+008,2.81077,0.7324
3.71e+008,2.79721,0.73154
3.72e+008,2.78683,0.737653
3.73e+008,2.77984,0.734979
3.74e+008,2.77165,0.72773
3.75e+008,2.75662,0.732221
3.76e+008,2.74097,0.72514
3.77e+008,2.73579,0.722495
3.78e+008,2.72014,0.718779
3.79e+008,2.71347,0.72153
3.8e+008,2.69696,0.712091
3.81e+008,2.68287,0.717581
3.82e+008,2.6694,0.711892
3.83e+008,2.6569,0.708471
3.84e+008,2.64612,0.709533
3.85e+008,2.63082,0.703218
3.86e+008,2.61675,0.703742
3.87e+008,2.6117,0.699834
3.88e+008,2.59693,0.696934
3.89e+008,2.58493,0.693897
3.9e+008,2.57388,0.700224
3.91e+008,2.56108,0.69645
3.92e+008,2.55194,0.69144
3.93e+008,2.54127,0.690809
3.94e+008,2.52976,0.682949
3.95e+008,2.51647,0.686413
3.96e+008,2.51701,0.682504
3.97e+008,2.50147,0.681078
3.98e+008,2.49402,0.679106
3.99e+008,2.48743,0.677676
4e+008,2.47837,0.680001
4.01e+008,2.47604,0.672482
4.02e+008,2.46543,0.677105
4.03e+008,2.45998,0.674209
4.04e+008,2.45591,0.666136
4.05e+008,2.44631,0.669335
4.06e+008,2.44229,0.668835
4.07e+008,2.4359,0.670822
4.08e+008,2.43339,0.670239
4.09e+008,2.42824,0.669715
4.1e+008,2.42887,0.666453
4.11e+008,2.42605,0.667039
4.12e+008,2.4181,0.66829
4.13e+008,2.41629,0.667402
4.14e+008,2.41621,0.663387
4.15e+008,2.41501,0.670524
4.16e+008,2.40631,0.663646
4.17e+008,2.41383,0.670969
4.18e+008,2.41483,0.670352
4.19e+008,2.41467,0.672127
4.2e+008,2.41905,0.669604
4.21e+008,2.41975,0.673715
4.22e+008,2.41845,0.671503
4.23e+008,2.42376,0.673295
4.24e+008,2.43205,0.67622
4.25e+008,2.43156,0.67595
4.26e+008,2.43742,0.677427
4.27e+008,2.43851,0.67976
4.28e+008,2.44231,0.677737
4.29e+008,2.44793,0.674371
4.3e+008,2.45833,0.680964
4.31e+008,2.46361,0.683229
4.32e+008,2.47268,0.684702
4.33e+008,2.47492,0.686328
4.34e+008,2.47794,0.685197
4.35e+008,2.48677,0.691732
4.36e+008,2.48936,0.69405
4.37e+008,2.50109,0.694633
4.38e+008,2.50614,0.694439
4.39e+008,2.51254,0.699442
4.4e+008,2.51741,0.70807
4.41e+008,2.52454,0.702719
4.42e+008,2.53061,0.713641
4.43e+008,2.53901,0.715475
4.44e+008,2.54267,0.716037
4.45e+008,2.54931,0.716341
4.46e+008,2.55326,0.717811
4.47e+008,2.55686,0.723704
4.48e+008,2.56438,0.723691
4.49e+008,2.56535,0.728899
4.5e+008,2.57547,0.731174
4.51e+008,2.58064,0.738527
4.52e+008,2.58444,0.740418
4.53e+008,2.58967,0.740735
4.54e+008,2.59613,0.749726
4.55e+008,2.59746,0.750752
4.56e+008,2.60719,0.749188
4.57e+008,2.60926,0.752384
4.58e+008,2.61195,0.75498
4.59e+008,2.61547,0.760712
4.6e+008,2.62262,0.762266
4.61e+008,2.62003,0.763117
4.62e+008,2.62528,0.765873
4.63e+008,2.62678,0.768794
4.64e+008,2.62872,0.777325
4.65e+008,2.63093,0.780664
4.66e+008,2.63475,0.779076
4.67e+008,2.63367,0.777177
4.68e+008,2.63467,0.782621
4.69e+008,2.64116,0.781929
4.7e+008,2.636,0.781863
4.71e+008,2.63699,0.783897
4.72e+008,2.63766,0.786731
4.73e+008,2.63516,0.789782
4.74e+008,2.63781,0.790452
4.75e+008,2.62808,0.78785
4.76e+008,2.63009,0.791225
4.77e+008,2.63127,0.789571
4.78e+008,2.62329,0.788095
4.79e+008,2.62226,0.793203
4.8e+008,2.61714,0.790531
4.81e+008,2.61498,0.791209
4.82e+008,2.61693,0.789148
4.83e+008,2.61296,0.785567
4.84e+008,2.60348,0.793311
4.85e+008,2.59669,0.790832
4.86e+008,2.59464,0.785745
4.87e+008,2.591,0.78544
4.88e+008,2.58925,0.787439
4.89e+008,2.58141,0.788408
4.9e+008,2.57115,0.783938
4.91e+008,2.56952,0.782551
4.92e+008,2.55749,0.781586
4.93e+008,2.55403,0.779284
4.94e+008,2.54496,0.781219
4.95e+008,2.5414,0.778855
4.96e+008,2.52896,0.777333
4.97e+008,2.52544,0.774048
4.98e+008,2.51633,0.774813
4.99e+008,2.51129,0.770441
5e+008,2.49821,0.768898

