Coaxial Probe Method (Opt. 004) 20.0.22083101
Keysight Technologies,P9371A,MY57211749,A.17.25.05

Ch 1
Port:, 1
Probe:, High temperature
Std1:, Air
Std2:, Short
Std3:, 25.0C water
IFBW:, 300.000000 Hz
Power:, -5.000000 dBm
Date:,"Thursday, February 22, 2024 19:01:04"
frequency(Hz),e',e''
3e+008,7.62822,1.01003
3.01e+008,7.62479,1.00816
3.02e+008,7.62923,1.01102
3.03e+008,7.61467,1.00795
3.04e+008,7.61596,1.01741
3.05e+008,7.61176,1.0133
3.06e+008,7.60902,1.01567
3.07e+008,7.60334,1.01531
3.08e+008,7.59092,1.00865
3.09e+008,7.59148,1.0185
3.1e+008,7.59181,1.01383
3.11e+008,7.59018,1.01249
3.12e+008,7.58683,1.01417
3.13e+008,7.57627,1.01471
3.14e+008,7.57626,1.00966
3.15e+008,7.5706,1.01772
3.16e+008,7.57243,1.00482
3.17e+008,7.57013,1.01257
3.18e+008,7.55753,1.02184
3.19e+008,7.55641,1.01492
3.2e+008,7.55614,1.01783
3.21e+008,7.55266,1.01061
3.22e+008,7.54795,1.01932
3.23e+008,7.55169,1.0151
3.24e+008,7.54548,1.00316
3.25e+008,7.54235,1.01501
3.26e+008,7.53997,1.01712
3.27e+008,7.53655,1.01295
3.28e+008,7.53895,1.01981
3.29e+008,7.52946,1.007
3.3e+008,7.53138,1.01463
3.31e+008,7.53348,1.01763
3.32e+008,7.52267,1.01854
3.33e+008,7.52982,1.01455
3.34e+008,7.52472,1.02249
3.35e+008,7.51776,1.01149
3.36e+008,7.51926,1.02072
3.37e+008,7.51598,1.02115
3.38e+008,7.52028,1.01419
3.39e+008,7.51368,1.02265
3.4e+008,7.51575,1.01514
3.41e+008,7.51383,1.0154
3.42e+008,7.51806,1.01665
3.43e+008,7.51308,1.01257
3.44e+008,7.51249,1.02122
3.45e+008,7.51315,1.01368
3.46e+008,7.51203,1.01628
3.47e+008,7.51551,1.01344
3.48e+008,7.51137,1.01625
3.49e+008,7.51786,1.01121
3.5e+008,7.51167,1.00946
3.51e+008,7.51268,1.01566
3.52e+008,7.5097,1.01618
3.53e+008,7.50763,1.01278
3.54e+008,7.50656,1.01869
3.55e+008,7.51225,1.01426
3.56e+008,7.5121,1.01412
3.57e+008,7.5116,1.01322
3.58e+008,7.51995,1.01207
3.59e+008,7.51631,1.00257
3.6e+008,7.51053,1.01298
3.61e+008,7.51219,1.01535
3.62e+008,7.51514,1.01294
3.63e+008,7.51927,1.01024
3.64e+008,7.51795,1.01693
3.65e+008,7.51347,1.01339
3.66e+008,7.52062,1.01938
3.67e+008,7.51853,1.0134
3.68e+008,7.51856,1.01288
3.69e+008,7.52266,1.01399
3.7e+008,7.51865,1.00784
3.71e+008,7.51938,1.00827
3.72e+008,7.52311,1.00975
3.73e+008,7.52863,1.01225
3.74e+008,7.52721,1.00588
3.75e+008,7.53012,1.00285
3.76e+008,7.52681,1.00796
3.77e+008,7.52591,1.00849
3.78e+008,7.5325,1.00626
3.79e+008,7.53039,1.00155
3.8e+008,7.52735,1.00416
3.81e+008,7.53336,1.00517
3.82e+008,7.5316,1.00584
3.83e+008,7.53285,0.999173
3.84e+008,7.53742,1.00206
3.85e+008,7.53327,1.00244
3.86e+008,7.53706,0.999987
3.87e+008,7.5361,1.00038
3.88e+008,7.53964,0.999058
3.89e+008,7.53839,1.00228
3.9e+008,7.5387,0.99833
3.91e+008,7.53697,0.999402
3.92e+008,7.53965,0.993585
3.93e+008,7.53618,0.998174
3.94e+008,7.53266,0.997732
3.95e+008,7.53639,0.997585
3.96e+008,7.53351,0.997999
3.97e+008,7.53807,0.996471
3.98e+008,7.53819,0.996124
3.99e+008,7.53786,0.997659
4e+008,7.5368,0.994287
4.01e+008,7.53786,0.997268
4.02e+008,7.53773,0.992228
4.03e+008,7.53816,0.991633
4.04e+008,7.53556,0.992075
4.05e+008,7.53315,0.992439
4.06e+008,7.53425,0.991297
4.07e+008,7.53375,0.990941
4.08e+008,7.53715,0.985629
4.09e+008,7.53161,0.989944
4.1e+008,7.53322,0.980449
4.11e+008,7.53114,0.986517
4.12e+008,7.52527,0.987286
4.13e+008,7.53208,0.981674
4.14e+008,7.52957,0.987322
4.15e+008,7.52659,0.980086
4.16e+008,7.52587,0.97914
4.17e+008,7.52297,0.982541
4.18e+008,7.52723,0.982595
4.19e+008,7.52855,0.982896
4.2e+008,7.52265,0.97588
4.21e+008,7.51929,0.9815
4.22e+008,7.52212,0.974647
4.23e+008,7.51852,0.978552
4.24e+008,7.5176,0.982333
4.25e+008,7.51483,0.974522
4.26e+008,7.51441,0.976595
4.27e+008,7.51264,0.969816
4.28e+008,7.51203,0.974895
4.29e+008,7.50994,0.970401
4.3e+008,7.50611,0.974756
4.31e+008,7.50995,0.969623
4.32e+008,7.50427,0.976268
4.33e+008,7.50547,0.971771
4.34e+008,7.50179,0.972619
4.35e+008,7.50271,0.966869
4.36e+008,7.49695,0.971041
4.37e+008,7.49825,0.967723
4.38e+008,7.50038,0.965577
4.39e+008,7.4996,0.962701
4.4e+008,7.49133,0.965803
4.41e+008,7.49026,0.962002
4.42e+008,7.48978,0.968743
4.43e+008,7.49212,0.962621
4.44e+008,7.48778,0.962725
4.45e+008,7.48698,0.963182
4.46e+008,7.48792,0.960722
4.47e+008,7.47952,0.960556
4.48e+008,7.48345,0.962595
4.49e+008,7.47924,0.953626
4.5e+008,7.48153,0.956353
4.51e+008,7.47682,0.956509
4.52e+008,7.48174,0.958808
4.53e+008,7.47654,0.9568
4.54e+008,7.47199,0.956442
4.55e+008,7.47729,0.955508
4.56e+008,7.47449,0.957136
4.57e+008,7.46815,0.955573
4.58e+008,7.47556,0.953986
4.59e+008,7.4733,0.950802
4.6e+008,7.46858,0.9566
4.61e+008,7.46881,0.958929
4.62e+008,7.46803,0.958089
4.63e+008,7.46954,0.954829
4.64e+008,7.46292,0.958114
4.65e+008,7.46398,0.952841
4.66e+008,7.46382,0.95291
4.67e+008,7.45837,0.946381
4.68e+008,7.46116,0.9519
4.69e+008,7.46221,0.950799
4.7e+008,7.46858,0.955169
4.71e+008,7.46064,0.947511
4.72e+008,7.46167,0.954595
4.73e+008,7.45931,0.952607
4.74e+008,7.46114,0.949291
4.75e+008,7.45729,0.946655
4.76e+008,7.45771,0.94766
4.77e+008,7.45675,0.94864
4.78e+008,7.45591,0.947825
4.79e+008,7.45671,0.945973
4.8e+008,7.45402,0.94338
4.81e+008,7.45429,0.949204
4.82e+008,7.45736,0.946962
4.83e+008,7.45502,0.950809
4.84e+008,7.45238,0.948386
4.85e+008,7.45169,0.945559
4.86e+008,7.45139,0.946617
4.87e+008,7.45371,0.946986
4.88e+008,7.45072,0.945659
4.89e+008,7.45419,0.947549
4.9e+008,7.45159,0.94504
4.91e+008,7.45075,0.944536
4.92e+008,7.44778,0.947236
4.93e+008,7.44974,0.947677
4.94e+008,7.4504,0.944897
4.95e+008,7.44993,0.947473
4.96e+008,7.44582,0.945632
4.97e+008,7.44865,0.944683
4.98e+008,7.44742,0.943674
4.99e+008,7.44571,0.948225
5e+008,7.44822,0.942154

