Coaxial Probe Method (Opt. 004) 20.0.22083101
Keysight Technologies,P9371A,MY57211749,A.17.25.05

Ch 1
Port:, 1
Probe:, High temperature
Std1:, Air
Std2:, Short
Std3:, 25.0C water
IFBW:, 300.000000 Hz
Power:, -5.000000 dBm
Date:,"Thursday, February 22, 2024 18:19:20"
frequency(Hz),e',e''
3e+008,14.0602,3.93572
3.01e+008,14.0606,3.92982
3.02e+008,14.0537,3.92384
3.03e+008,14.0405,3.92018
3.04e+008,14.0357,3.9203
3.05e+008,14.0237,3.91524
3.06e+008,14.0173,3.90756
3.07e+008,14.0119,3.90905
3.08e+008,14.0002,3.8966
3.09e+008,13.9967,3.90431
3.1e+008,13.9939,3.89149
3.11e+008,13.9827,3.88654
3.12e+008,13.9703,3.88267
3.13e+008,13.9605,3.87581
3.14e+008,13.9606,3.87941
3.15e+008,13.9512,3.87699
3.16e+008,13.9466,3.86726
3.17e+008,13.943,3.86796
3.18e+008,13.9311,3.85685
3.19e+008,13.9277,3.85089
3.2e+008,13.927,3.85374
3.21e+008,13.9131,3.85253
3.22e+008,13.9153,3.84087
3.23e+008,13.9028,3.84009
3.24e+008,13.8976,3.82736
3.25e+008,13.897,3.82739
3.26e+008,13.8888,3.82971
3.27e+008,13.8824,3.82311
3.28e+008,13.8854,3.82447
3.29e+008,13.8682,3.81422
3.3e+008,13.8635,3.81328
3.31e+008,13.8664,3.80995
3.32e+008,13.8496,3.81447
3.33e+008,13.8523,3.80146
3.34e+008,13.8468,3.79974
3.35e+008,13.8415,3.79938
3.36e+008,13.8373,3.79534
3.37e+008,13.832,3.79804
3.38e+008,13.825,3.78638
3.39e+008,13.8191,3.78704
3.4e+008,13.8183,3.78312
3.41e+008,13.8117,3.77873
3.42e+008,13.8112,3.77735
3.43e+008,13.8045,3.77402
3.44e+008,13.8036,3.77391
3.45e+008,13.7966,3.76852
3.46e+008,13.7939,3.76479
3.47e+008,13.7865,3.75962
3.48e+008,13.7805,3.75797
3.49e+008,13.7834,3.74939
3.5e+008,13.7786,3.75222
3.51e+008,13.7757,3.74889
3.52e+008,13.7704,3.74613
3.53e+008,13.7635,3.74203
3.54e+008,13.7578,3.73575
3.55e+008,13.7599,3.7327
3.56e+008,13.7526,3.73223
3.57e+008,13.7516,3.73414
3.58e+008,13.7488,3.72507
3.59e+008,13.7429,3.71864
3.6e+008,13.7421,3.72198
3.61e+008,13.7432,3.71895
3.62e+008,13.7351,3.70934
3.63e+008,13.7358,3.7073
3.64e+008,13.7335,3.70882
3.65e+008,13.7293,3.7057
3.66e+008,13.7315,3.70366
3.67e+008,13.7238,3.70357
3.68e+008,13.7181,3.6982
3.69e+008,13.7183,3.69222
3.7e+008,13.7079,3.69209
3.71e+008,13.703,3.68533
3.72e+008,13.7082,3.67956
3.73e+008,13.7006,3.68212
3.74e+008,13.7008,3.67941
3.75e+008,13.6986,3.67231
3.76e+008,13.6976,3.66919
3.77e+008,13.6921,3.66639
3.78e+008,13.6864,3.66515
3.79e+008,13.6866,3.65628
3.8e+008,13.6832,3.65633
3.81e+008,13.6826,3.65654
3.82e+008,13.6794,3.65048
3.83e+008,13.6748,3.64692
3.84e+008,13.6697,3.64239
3.85e+008,13.6705,3.64384
3.86e+008,13.6641,3.63594
3.87e+008,13.6602,3.63806
3.88e+008,13.6585,3.62696
3.89e+008,13.6561,3.62628
3.9e+008,13.6544,3.6208
3.91e+008,13.6483,3.62045
3.92e+008,13.6429,3.61344
3.93e+008,13.6402,3.61433
3.94e+008,13.6334,3.61375
3.95e+008,13.6339,3.60403
3.96e+008,13.6309,3.60368
3.97e+008,13.6214,3.60445
3.98e+008,13.6252,3.59889
3.99e+008,13.6202,3.59155
4e+008,13.6156,3.5896
4.01e+008,13.6112,3.59017
4.02e+008,13.6075,3.58428
4.03e+008,13.6025,3.57943
4.04e+008,13.6016,3.57727
4.05e+008,13.5935,3.57455
4.06e+008,13.5916,3.57108
4.07e+008,13.5888,3.56681
4.08e+008,13.5827,3.55997
4.09e+008,13.5823,3.56104
4.1e+008,13.5795,3.55416
4.11e+008,13.5736,3.55407
4.12e+008,13.5682,3.55046
4.13e+008,13.5617,3.54669
4.14e+008,13.5654,3.54735
4.15e+008,13.5538,3.53923
4.16e+008,13.5561,3.53257
4.17e+008,13.547,3.53502
4.18e+008,13.5425,3.53085
4.19e+008,13.5426,3.53042
4.2e+008,13.5335,3.52759
4.21e+008,13.5279,3.52573
4.22e+008,13.5293,3.51025
4.23e+008,13.5232,3.51188
4.24e+008,13.5189,3.51095
4.25e+008,13.5151,3.51196
4.26e+008,13.5103,3.50634
4.27e+008,13.5073,3.50152
4.28e+008,13.5002,3.50438
4.29e+008,13.5013,3.49111
4.3e+008,13.495,3.49531
4.31e+008,13.4893,3.49125
4.32e+008,13.4846,3.4943
4.33e+008,13.482,3.48602
4.34e+008,13.4776,3.48377
4.35e+008,13.4798,3.47904
4.36e+008,13.468,3.48024
4.37e+008,13.4687,3.47581
4.38e+008,13.4674,3.47169
4.39e+008,13.4629,3.4696
4.4e+008,13.4541,3.46296
4.41e+008,13.4472,3.46019
4.42e+008,13.4464,3.46342
4.43e+008,13.4468,3.45501
4.44e+008,13.4429,3.45647
4.45e+008,13.4397,3.45259
4.46e+008,13.4337,3.45068
4.47e+008,13.428,3.44619
4.48e+008,13.423,3.44645
4.49e+008,13.4222,3.44054
4.5e+008,13.423,3.44222
4.51e+008,13.4162,3.43858
4.52e+008,13.4148,3.43622
4.53e+008,13.4094,3.43177
4.54e+008,13.402,3.42965
4.55e+008,13.4034,3.4364
4.56e+008,13.3963,3.42439
4.57e+008,13.3917,3.42684
4.58e+008,13.3963,3.42419
4.59e+008,13.3897,3.41608
4.6e+008,13.3884,3.41729
4.61e+008,13.3833,3.41353
4.62e+008,13.383,3.4128
4.63e+008,13.3813,3.41252
4.64e+008,13.3753,3.41035
4.65e+008,13.3725,3.40549
4.66e+008,13.3702,3.40226
4.67e+008,13.3632,3.39749
4.68e+008,13.3658,3.40016
4.69e+008,13.3604,3.39881
4.7e+008,13.3636,3.39603
4.71e+008,13.358,3.38959
4.72e+008,13.3556,3.39234
4.73e+008,13.3501,3.38991
4.74e+008,13.3502,3.38693
4.75e+008,13.3474,3.38777
4.76e+008,13.3456,3.38336
4.77e+008,13.3408,3.38037
4.78e+008,13.3387,3.37985
4.79e+008,13.3386,3.37878
4.8e+008,13.3312,3.37295
4.81e+008,13.3316,3.37679
4.82e+008,13.3304,3.3706
4.83e+008,13.3276,3.3698
4.84e+008,13.3222,3.36924
4.85e+008,13.324,3.3653
4.86e+008,13.3181,3.36487
4.87e+008,13.3168,3.36269
4.88e+008,13.3156,3.35796
4.89e+008,13.3123,3.35495
4.9e+008,13.3091,3.3531
4.91e+008,13.3072,3.35409
4.92e+008,13.3019,3.35366
4.93e+008,13.3001,3.35122
4.94e+008,13.2993,3.34984
4.95e+008,13.2969,3.35104
4.96e+008,13.2948,3.34516
4.97e+008,13.2898,3.34274
4.98e+008,13.2896,3.339
4.99e+008,13.2858,3.34284
5e+008,13.2837,3.33551

