Coaxial Probe Method (Opt. 004) 20.0.22083101
Keysight Technologies,P9371A,MY57211751,A.17.25.05

Ch 1
Port:, 1
Probe:, High temperature
Std1:, Air
Std2:, Short
Std3:, 25.0C water
IFBW:, 300.000000 Hz
Power:, -5.000000 dBm
Date:,"Saturday, July 06, 2024 17:13:42"
frequency(Hz),e',e''
3e+008,61.4046,44.8401
3.01e+008,61.3645,44.7643
3.02e+008,61.3241,44.6918
3.03e+008,61.2927,44.601
3.04e+008,61.2573,44.5377
3.05e+008,61.2235,44.4596
3.06e+008,61.1907,44.3943
3.07e+008,61.1536,44.3414
3.08e+008,61.1349,44.2985
3.09e+008,61.1029,44.2231
3.1e+008,61.0767,44.1654
3.11e+008,61.0407,44.1271
3.12e+008,61.0138,44.071
3.13e+008,60.9745,43.8793
3.14e+008,60.9449,43.7833
3.15e+008,60.9209,43.7132
3.16e+008,60.8811,43.6487
3.17e+008,60.8581,43.5879
3.18e+008,60.8262,43.5116
3.19e+008,60.7895,43.4869
3.2e+008,60.7593,43.4269
3.21e+008,60.7333,43.377
3.22e+008,60.703,43.3095
3.23e+008,60.6661,43.2618
3.24e+008,60.6468,43.2252
3.25e+008,60.6187,43.1835
3.26e+008,60.5821,43.1466
3.27e+008,60.5538,43.0919
3.28e+008,60.5189,43.0507
3.29e+008,60.4875,43.0022
3.3e+008,60.4592,42.9534
3.31e+008,60.4292,42.9345
3.32e+008,60.3961,42.9231
3.33e+008,60.3653,42.88
3.34e+008,60.3224,42.8161
3.35e+008,60.2945,42.7654
3.36e+008,60.2548,42.7265
3.37e+008,60.2295,42.6614
3.38e+008,60.1912,42.6382
3.39e+008,60.1522,42.609
3.4e+008,60.1163,42.5826
3.41e+008,60.0809,42.5369
3.42e+008,60.0464,42.4794
3.43e+008,60.0149,42.4289
3.44e+008,59.9733,42.3551
3.45e+008,59.9376,42.2987
3.46e+008,59.9007,42.2367
3.47e+008,59.8579,42.1837
3.48e+008,59.8245,42.1234
3.49e+008,59.7855,42.1119
3.5e+008,59.7353,42.0659
3.51e+008,59.6992,42.0255
3.52e+008,59.6598,41.9976
3.53e+008,59.6169,41.9584
3.54e+008,59.5744,41.9132
3.55e+008,59.5319,41.8728
3.56e+008,59.4982,41.8228
3.57e+008,59.4508,41.7854
3.58e+008,59.4012,41.7616
3.59e+008,59.3655,41.7415
3.6e+008,59.308,41.7204
3.61e+008,59.2739,41.6855
3.62e+008,59.2155,41.6527
3.63e+008,59.1739,41.6373
3.64e+008,59.1255,41.612
3.65e+008,59.0833,41.5805
3.66e+008,59.0239,41.543
3.67e+008,58.9804,41.5253
3.68e+008,58.9235,41.4864
3.69e+008,58.8761,41.4404
3.7e+008,58.8191,41.405
3.71e+008,58.7697,41.3635
3.72e+008,58.7199,41.3056
3.73e+008,58.6645,41.2765
3.74e+008,58.6272,41.2484
3.75e+008,58.5745,41.2123
3.76e+008,58.5215,41.1372
3.77e+008,58.46,41.0926
3.78e+008,58.4121,41.0834
3.79e+008,58.3558,41.1004
3.8e+008,58.2988,41.0867
3.81e+008,58.2395,41.0878
3.82e+008,58.1812,41.0628
3.83e+008,58.135,41.0657
3.84e+008,58.0788,41.0791
3.85e+008,58.0157,41.0722
3.86e+008,57.9552,41.0356
3.87e+008,57.9038,41.0181
3.88e+008,57.8541,41.0027
3.89e+008,57.8024,40.9698
3.9e+008,57.7495,40.9692
3.91e+008,57.6831,40.9817
3.92e+008,57.6286,40.9722
3.93e+008,57.5756,40.9678
3.94e+008,57.5116,40.9676
3.95e+008,57.4596,40.9716
3.96e+008,57.4058,40.9349
3.97e+008,57.3572,40.9098
3.98e+008,57.3064,40.8876
3.99e+008,57.2596,40.8456
4e+008,57.2161,40.7913
4.01e+008,57.1684,40.758
4.02e+008,57.1285,40.7285
4.03e+008,57.0762,40.6947
4.04e+008,57.0293,40.6783
4.05e+008,56.9912,40.6569
4.06e+008,56.9513,40.6171
4.07e+008,56.9119,40.5779
4.08e+008,56.8751,40.525
4.09e+008,56.8352,40.4665
4.1e+008,56.7987,40.4342
4.11e+008,56.7618,40.4103
4.12e+008,56.7337,40.3966
4.13e+008,56.7028,40.3475
4.14e+008,56.664,40.3171
4.15e+008,56.6298,40.3079
4.16e+008,56.597,40.2834
4.17e+008,56.5825,40.2338
4.18e+008,56.5679,40.1352
4.19e+008,56.5667,40.0383
4.2e+008,56.5498,39.9558
4.21e+008,56.5484,39.8922
4.22e+008,56.5287,39.8417
4.23e+008,56.5212,39.7731
4.24e+008,56.5084,39.7
4.25e+008,56.5068,39.6254
4.26e+008,56.5117,39.5299
4.27e+008,56.5013,39.445
4.28e+008,56.5079,39.3536
4.29e+008,56.5029,39.2698
4.3e+008,56.5088,39.1564
4.31e+008,56.5046,39.0666
4.32e+008,56.5148,38.9617
4.33e+008,56.5171,38.8861
4.34e+008,56.5177,38.793
4.35e+008,56.5191,38.7229
4.36e+008,56.5228,38.6343
4.37e+008,56.5227,38.5672
4.38e+008,56.5194,38.4999
4.39e+008,56.5376,38.4057
4.4e+008,56.5294,38.3426
4.41e+008,56.5284,38.2682
4.42e+008,56.5339,38.2006
4.43e+008,56.5341,38.1506
4.44e+008,56.5316,38.0974
4.45e+008,56.5255,38.0554
4.46e+008,56.5191,38.0268
4.47e+008,56.5099,38.006
4.48e+008,56.5009,37.9568
4.49e+008,56.4973,37.9267
4.5e+008,56.4875,37.9052
4.51e+008,56.4801,37.8739
4.52e+008,56.4747,37.8285
4.53e+008,56.4713,37.7905
4.54e+008,56.4638,37.7512
4.55e+008,56.4554,37.6965
4.56e+008,56.4565,37.6246
4.57e+008,56.4439,37.5952
4.58e+008,56.4269,37.5715
4.59e+008,56.416,37.5406
4.6e+008,56.3971,37.5118
4.61e+008,56.3752,37.5092
4.62e+008,56.3592,37.4982
4.63e+008,56.3387,37.4729
4.64e+008,56.315,37.4623
4.65e+008,56.2857,37.4572
4.66e+008,56.2691,37.4289
4.67e+008,56.2575,37.3589
4.68e+008,56.2388,37.3373
4.69e+008,56.2159,37.3122
4.7e+008,56.1939,37.2733
4.71e+008,56.1678,37.2531
4.72e+008,56.14,37.2579
4.73e+008,56.1087,37.254
4.74e+008,56.0845,37.2316
4.75e+008,56.0492,37.2113
4.76e+008,56.0136,37.2068
4.77e+008,55.9795,37.1947
4.78e+008,55.9466,37.1966
4.79e+008,55.9094,37.1881
4.8e+008,55.8693,37.1746
4.81e+008,55.8258,37.169
4.82e+008,55.7977,37.1029
4.83e+008,55.7651,37.0935
4.84e+008,55.7081,37.1022
4.85e+008,55.6775,37.1048
4.86e+008,55.6313,37.0636
4.87e+008,55.5905,37.061
4.88e+008,55.5479,37.0333
4.89e+008,55.5059,37.0178
4.9e+008,55.4603,37.02
4.91e+008,55.4102,37.0009
4.92e+008,55.3647,36.9943
4.93e+008,55.3153,36.9898
4.94e+008,55.2836,36.9684
4.95e+008,55.2257,36.9708
4.96e+008,55.1795,36.976
4.97e+008,55.1292,36.9549
4.98e+008,55.0772,36.9611
4.99e+008,55.0285,36.9563
5e+008,54.9701,36.9484

