Coaxial Probe Method (Opt. 004) 20.0.22083101
Keysight Technologies,P9371A,MY57211751,A.17.25.05

Ch 1
Port:, 1
Probe:, High temperature
Std1:, Air
Std2:, Short
Std3:, 25.0C water
IFBW:, 300.000000 Hz
Power:, -5.000000 dBm
Date:,"Saturday, July 06, 2024 17:25:21"
frequency(Hz),e',e''
3e+008,57.2791,39.4529
3.01e+008,57.2488,39.3924
3.02e+008,57.2046,39.326
3.03e+008,57.1717,39.2581
3.04e+008,57.1361,39.1943
3.05e+008,57.1064,39.1394
3.06e+008,57.0752,39.0832
3.07e+008,57.0338,39.0331
3.08e+008,57.0092,39.0045
3.09e+008,56.9825,38.9519
3.1e+008,56.9513,38.9076
3.11e+008,56.911,38.8744
3.12e+008,56.8769,38.8367
3.13e+008,56.8748,38.6605
3.14e+008,56.834,38.5849
3.15e+008,56.8109,38.5251
3.16e+008,56.7784,38.4802
3.17e+008,56.7602,38.4325
3.18e+008,56.7237,38.369
3.19e+008,56.6866,38.3499
3.2e+008,56.6593,38.302
3.21e+008,56.6345,38.2647
3.22e+008,56.6126,38.2109
3.23e+008,56.5757,38.169
3.24e+008,56.5438,38.1382
3.25e+008,56.5165,38.1029
3.26e+008,56.4829,38.0739
3.27e+008,56.4505,38.0371
3.28e+008,56.4212,38.0026
3.29e+008,56.3836,37.9626
3.3e+008,56.3538,37.9274
3.31e+008,56.3242,37.9093
3.32e+008,56.2869,37.8904
3.33e+008,56.2564,37.8647
3.34e+008,56.2233,37.8151
3.35e+008,56.1873,37.7687
3.36e+008,56.1515,37.7468
3.37e+008,56.1164,37.693
3.38e+008,56.0824,37.6713
3.39e+008,56.052,37.6512
3.4e+008,56.008,37.6371
3.41e+008,55.9682,37.5935
3.42e+008,55.9364,37.5542
3.43e+008,55.8998,37.5107
3.44e+008,55.8582,37.4558
3.45e+008,55.8215,37.4066
3.46e+008,55.7798,37.3543
3.47e+008,55.7469,37.3084
3.48e+008,55.7089,37.2702
3.49e+008,55.6658,37.2463
3.5e+008,55.6203,37.2146
3.51e+008,55.5799,37.1828
3.52e+008,55.5314,37.1638
3.53e+008,55.4899,37.137
3.54e+008,55.4537,37.0926
3.55e+008,55.4012,37.0606
3.56e+008,55.3609,37.0219
3.57e+008,55.3152,36.9892
3.58e+008,55.2549,36.9749
3.59e+008,55.2141,36.9556
3.6e+008,55.1664,36.9334
3.61e+008,55.1118,36.9094
3.62e+008,55.0591,36.8857
3.63e+008,55.0038,36.8765
3.64e+008,54.9538,36.8623
3.65e+008,54.9022,36.8335
3.66e+008,54.8445,36.8005
3.67e+008,54.7958,36.7913
3.68e+008,54.7379,36.7578
3.69e+008,54.6874,36.7192
3.7e+008,54.6192,36.6877
3.71e+008,54.5658,36.6483
3.72e+008,54.5233,36.6071
3.73e+008,54.463,36.5818
3.74e+008,54.4127,36.557
3.75e+008,54.3515,36.5287
3.76e+008,54.3042,36.4664
3.77e+008,54.248,36.4286
3.78e+008,54.1864,36.4272
3.79e+008,54.1162,36.4415
3.8e+008,54.056,36.4193
3.81e+008,53.9914,36.4264
3.82e+008,53.9308,36.4094
3.83e+008,53.8676,36.4191
3.84e+008,53.8024,36.4272
3.85e+008,53.7353,36.4229
3.86e+008,53.6822,36.3893
3.87e+008,53.6164,36.3779
3.88e+008,53.5604,36.3548
3.89e+008,53.4987,36.3353
3.9e+008,53.4418,36.3272
3.91e+008,53.3681,36.3478
3.92e+008,53.3015,36.339
3.93e+008,53.2507,36.3351
3.94e+008,53.1729,36.3397
3.95e+008,53.1125,36.3379
3.96e+008,53.0527,36.3131
3.97e+008,53.0019,36.2972
3.98e+008,52.9493,36.2708
3.99e+008,52.8992,36.2349
4e+008,52.8477,36.1826
4.01e+008,52.8012,36.1594
4.02e+008,52.7543,36.1434
4.03e+008,52.7029,36.1141
4.04e+008,52.6504,36.0971
4.05e+008,52.6031,36.0885
4.06e+008,52.5632,36.0502
4.07e+008,52.5178,36.0161
4.08e+008,52.4756,35.9703
4.09e+008,52.4422,35.922
4.1e+008,52.4023,35.9044
4.11e+008,52.3569,35.8776
4.12e+008,52.3231,35.872
4.13e+008,52.2838,35.8312
4.14e+008,52.2469,35.8033
4.15e+008,52.2057,35.8002
4.16e+008,52.1701,35.7841
4.17e+008,52.1491,35.7458
4.18e+008,52.1451,35.6551
4.19e+008,52.1356,35.58
4.2e+008,52.1268,35.5113
4.21e+008,52.1169,35.4592
4.22e+008,52.0995,35.4172
4.23e+008,52.0921,35.3624
4.24e+008,52.0877,35.3043
4.25e+008,52.0859,35.2459
4.26e+008,52.0907,35.1597
4.27e+008,52.0859,35.0963
4.28e+008,52.0814,35.0228
4.29e+008,52.0845,34.9486
4.3e+008,52.0984,34.854
4.31e+008,52.1005,34.7822
4.32e+008,52.1081,34.6948
4.33e+008,52.1192,34.6253
4.34e+008,52.128,34.5554
4.35e+008,52.1231,34.498
4.36e+008,52.1279,34.4322
4.37e+008,52.129,34.3757
4.38e+008,52.1348,34.3208
4.39e+008,52.1448,34.2406
4.4e+008,52.1489,34.1905
4.41e+008,52.1574,34.1267
4.42e+008,52.1595,34.0753
4.43e+008,52.1587,34.0346
4.44e+008,52.1589,33.9948
4.45e+008,52.1567,33.9646
4.46e+008,52.1426,33.9465
4.47e+008,52.134,33.9263
4.48e+008,52.1295,33.8843
4.49e+008,52.1256,33.8631
4.5e+008,52.1131,33.8442
4.51e+008,52.1119,33.8192
4.52e+008,52.1073,33.7905
4.53e+008,52.1043,33.7551
4.54e+008,52.0919,33.7243
4.55e+008,52.0947,33.6819
4.56e+008,52.0979,33.6249
4.57e+008,52.0919,33.5985
4.58e+008,52.0703,33.5837
4.59e+008,52.0642,33.5594
4.6e+008,52.0522,33.5431
4.61e+008,52.024,33.5279
4.62e+008,52.0123,33.5291
4.63e+008,51.9894,33.5136
4.64e+008,51.9735,33.5024
4.65e+008,51.9436,33.4971
4.66e+008,51.9252,33.4802
4.67e+008,51.9193,33.4176
4.68e+008,51.9079,33.399
4.69e+008,51.8865,33.3729
4.7e+008,51.8661,33.3463
4.71e+008,51.8387,33.3324
4.72e+008,51.8082,33.3448
4.73e+008,51.7804,33.3358
4.74e+008,51.7528,33.3203
4.75e+008,51.7273,33.3009
4.76e+008,51.6935,33.2986
4.77e+008,51.6631,33.2894
4.78e+008,51.6238,33.2903
4.79e+008,51.5925,33.2795
4.8e+008,51.5486,33.2762
4.81e+008,51.5156,33.2675
4.82e+008,51.4916,33.216
4.83e+008,51.4594,33.2034
4.84e+008,51.4087,33.2141
4.85e+008,51.3693,33.2073
4.86e+008,51.3299,33.1844
4.87e+008,51.2872,33.172
4.88e+008,51.2557,33.1504
4.89e+008,51.2082,33.1367
4.9e+008,51.1613,33.1389
4.91e+008,51.1171,33.1229
4.92e+008,51.0762,33.1151
4.93e+008,51.025,33.1077
4.94e+008,50.9936,33.0887
4.95e+008,50.941,33.0912
4.96e+008,50.889,33.0941
4.97e+008,50.8408,33.0803
4.98e+008,50.7875,33.0825
4.99e+008,50.7367,33.0745
5e+008,50.6921,33.0698

