Coaxial Probe Method (Opt. 004) 20.0.22083101
Keysight Technologies,P9371A,MY57211749,A.17.25.05

Ch 1
Port:, 1
Probe:, High temperature
Std1:, Air
Std2:, Short
Std3:, 25.0C water
IFBW:, 300.000000 Hz
Power:, -5.000000 dBm
Date:,"Tuesday, February 27, 2024 19:12:57"
frequency(Hz),e',e''
3e+008,6.5002,0.854819
3.01e+008,6.49117,0.851941
3.02e+008,6.4959,0.849879
3.03e+008,6.48277,0.853893
3.04e+008,6.48981,0.84885
3.05e+008,6.49184,0.858256
3.06e+008,6.48253,0.855957
3.07e+008,6.4805,0.857383
3.08e+008,6.47917,0.853713
3.09e+008,6.47709,0.854625
3.1e+008,6.47561,0.848861
3.11e+008,6.47488,0.853747
3.12e+008,6.46591,0.855982
3.13e+008,6.46557,0.848805
3.14e+008,6.4609,0.851426
3.15e+008,6.46141,0.847093
3.16e+008,6.4626,0.852891
3.17e+008,6.45819,0.847622
3.18e+008,6.45676,0.856086
3.19e+008,6.4548,0.853875
3.2e+008,6.44749,0.853226
3.21e+008,6.44688,0.852041
3.22e+008,6.44265,0.842865
3.23e+008,6.44152,0.855378
3.24e+008,6.44011,0.851664
3.25e+008,6.43357,0.848989
3.26e+008,6.43452,0.850554
3.27e+008,6.42946,0.843289
3.28e+008,6.4307,0.846669
3.29e+008,6.4287,0.843656
3.3e+008,6.41599,0.847084
3.31e+008,6.4207,0.851117
3.32e+008,6.41927,0.846572
3.33e+008,6.40852,0.847495
3.34e+008,6.41117,0.843345
3.35e+008,6.41185,0.84043
3.36e+008,6.40658,0.840946
3.37e+008,6.40698,0.849739
3.38e+008,6.39776,0.840303
3.39e+008,6.39394,0.845822
3.4e+008,6.39374,0.835807
3.41e+008,6.38904,0.843193
3.42e+008,6.38996,0.843641
3.43e+008,6.38807,0.843175
3.44e+008,6.38059,0.839208
3.45e+008,6.37561,0.835239
3.46e+008,6.36894,0.84036
3.47e+008,6.37154,0.839494
3.48e+008,6.37448,0.840481
3.49e+008,6.37454,0.837938
3.5e+008,6.36528,0.841319
3.51e+008,6.3581,0.843478
3.52e+008,6.36159,0.835179
3.53e+008,6.36014,0.837764
3.54e+008,6.35571,0.836602
3.55e+008,6.35426,0.842137
3.56e+008,6.35024,0.836047
3.57e+008,6.34967,0.840972
3.58e+008,6.34648,0.841512
3.59e+008,6.34791,0.831575
3.6e+008,6.34679,0.8364
3.61e+008,6.34131,0.835024
3.62e+008,6.33432,0.833823
3.63e+008,6.33424,0.839214
3.64e+008,6.33648,0.838797
3.65e+008,6.32835,0.832843
3.66e+008,6.33059,0.828231
3.67e+008,6.3276,0.831248
3.68e+008,6.32623,0.83406
3.69e+008,6.33008,0.832266
3.7e+008,6.32868,0.833722
3.71e+008,6.32704,0.830284
3.72e+008,6.3263,0.834789
3.73e+008,6.32583,0.827381
3.74e+008,6.32778,0.829457
3.75e+008,6.32626,0.825966
3.76e+008,6.32178,0.828922
3.77e+008,6.32257,0.830103
3.78e+008,6.32076,0.830456
3.79e+008,6.32186,0.826812
3.8e+008,6.31968,0.826989
3.81e+008,6.32296,0.8289
3.82e+008,6.3197,0.826538
3.83e+008,6.32441,0.82736
3.84e+008,6.32538,0.826925
3.85e+008,6.32526,0.824111
3.86e+008,6.32265,0.828311
3.87e+008,6.3222,0.823177
3.88e+008,6.32061,0.82558
3.89e+008,6.32356,0.826309
3.9e+008,6.32336,0.827815
3.91e+008,6.32839,0.822638
3.92e+008,6.32821,0.826467
3.93e+008,6.32847,0.820539
3.94e+008,6.32529,0.825306
3.95e+008,6.32812,0.826965
3.96e+008,6.32774,0.825039
3.97e+008,6.33367,0.826604
3.98e+008,6.33058,0.824258
3.99e+008,6.33538,0.820049
4e+008,6.3328,0.82317
4.01e+008,6.33558,0.822889
4.02e+008,6.33663,0.823233
4.03e+008,6.33395,0.81956
4.04e+008,6.33953,0.819297
4.05e+008,6.343,0.826128
4.06e+008,6.34055,0.819305
4.07e+008,6.34159,0.818503
4.08e+008,6.34511,0.82245
4.09e+008,6.34906,0.81858
4.1e+008,6.3476,0.818518
4.11e+008,6.34902,0.821099
4.12e+008,6.34995,0.817305
4.13e+008,6.34883,0.820659
4.14e+008,6.35353,0.813664
4.15e+008,6.35187,0.817194
4.16e+008,6.35438,0.815717
4.17e+008,6.35531,0.815003
4.18e+008,6.35672,0.814625
4.19e+008,6.3626,0.816374
4.2e+008,6.35787,0.810389
4.21e+008,6.36073,0.813942
4.22e+008,6.3575,0.815522
4.23e+008,6.36087,0.810688
4.24e+008,6.36244,0.814004
4.25e+008,6.36605,0.810674
4.26e+008,6.36663,0.817042
4.27e+008,6.36381,0.814199
4.28e+008,6.36211,0.816205
4.29e+008,6.36623,0.812985
4.3e+008,6.36211,0.807397
4.31e+008,6.36209,0.811562
4.32e+008,6.36523,0.811532
4.33e+008,6.36516,0.814359
4.34e+008,6.36641,0.813191
4.35e+008,6.36142,0.81034
4.36e+008,6.35992,0.807504
4.37e+008,6.36173,0.811302
4.38e+008,6.36664,0.80962
4.39e+008,6.36419,0.811728
4.4e+008,6.35772,0.811164
4.41e+008,6.36171,0.806779
4.42e+008,6.36066,0.806313
4.43e+008,6.35565,0.807885
4.44e+008,6.36065,0.811412
4.45e+008,6.35409,0.805391
4.46e+008,6.35716,0.808002
4.47e+008,6.35059,0.804842
4.48e+008,6.3502,0.806226
4.49e+008,6.34932,0.806671
4.5e+008,6.34677,0.803902
4.51e+008,6.34561,0.803545
4.52e+008,6.34251,0.803823
4.53e+008,6.34202,0.804576
4.54e+008,6.33907,0.800501
4.55e+008,6.335,0.805143
4.56e+008,6.33706,0.807509
4.57e+008,6.33246,0.802724
4.58e+008,6.32832,0.799483
4.59e+008,6.32858,0.801435
4.6e+008,6.32634,0.79871
4.61e+008,6.32287,0.798986
4.62e+008,6.3171,0.802903
4.63e+008,6.31644,0.799938
4.64e+008,6.31302,0.799465
4.65e+008,6.3111,0.797321
4.66e+008,6.30689,0.796567
4.67e+008,6.30819,0.798631
4.68e+008,6.30544,0.794513
4.69e+008,6.30221,0.795077
4.7e+008,6.29686,0.794606
4.71e+008,6.29341,0.794654
4.72e+008,6.29151,0.799224
4.73e+008,6.28925,0.794348
4.74e+008,6.28463,0.797347
4.75e+008,6.28477,0.797057
4.76e+008,6.28243,0.797403
4.77e+008,6.27936,0.796668
4.78e+008,6.27543,0.79447
4.79e+008,6.27275,0.796985
4.8e+008,6.27004,0.792134
4.81e+008,6.26475,0.79441
4.82e+008,6.2661,0.793517
4.83e+008,6.2603,0.792867
4.84e+008,6.25813,0.789281
4.85e+008,6.25433,0.790027
4.86e+008,6.25585,0.792334
4.87e+008,6.2506,0.792577
4.88e+008,6.24885,0.789348
4.89e+008,6.24881,0.793896
4.9e+008,6.24463,0.790826
4.91e+008,6.24139,0.789938
4.92e+008,6.2432,0.788253
4.93e+008,6.23865,0.791249
4.94e+008,6.23651,0.788187
4.95e+008,6.2361,0.787295
4.96e+008,6.23521,0.786796
4.97e+008,6.23086,0.791181
4.98e+008,6.2284,0.78596
4.99e+008,6.22621,0.788447
5e+008,6.22645,0.791837

